{
  "resourceType" : "Bundle",
  "id" : "PrimaryScreeningDecision_act-sdmcontinueage_act-sdmcontinuelifexp_end-decisionhighrisk",
  "type" : "collection",
  "entry" : [{
    "fullUrl" : "http://cancerscreeningcds.github.io/bcsm-cds/CarePlan/84",
    "resource" : {
      "resourceType" : "CarePlan",
      "id" : "84",
      "text" : {
        "status" : "generated",
        "div" : "<div xmlns=\"http://www.w3.org/1999/xhtml\"><a name=\"CarePlan_84\"> </a><p class=\"res-header-id\"><b>Generated Narrative: CarePlan 84</b></p><a name=\"84\"> </a><a name=\"hc84\"> </a><a name=\"84-en-US\"> </a><p><b>instantiatesCanonical</b>: <a href=\"PlanDefinition-PrimaryScreeningDecision.html\">Primary Screening Decision</a></p><p><b>status</b>: Draft</p><p><b>intent</b>: Proposal</p><p><b>subject</b>: <a href=\"Bundle-act-sdmcontinueage_act-sdmcontinuelifexp_end-decisionhighrisk.html#Patient_55c03346-9d8e-4810-a819-ada1cdbc00ea\">Jane Doe</a></p><p><b>created</b>: 2024-12-10 00:00:00+0000</p><h3>Activities</h3><table class=\"grid\"><tr><td style=\"display: none\">-</td><td><b>Reference</b></td></tr><tr><td style=\"display: none\">*</td><td><a href=\"Bundle-PrimaryScreeningDecision_act-sdmcontinueage_act-sdmcontinuelifexp_end-decisionhighrisk.html#RequestGroup_85\">Bundle: type = collection</a></td></tr></table></div>"
      },
      "instantiatesCanonical" : ["http://cancerscreeningcds.github.io/bcsm-cds/PlanDefinition/PrimaryScreeningDecision"],
      "status" : "draft",
      "intent" : "proposal",
      "subject" : {
        "reference" : "Patient/55c03346-9d8e-4810-a819-ada1cdbc00ea",
        "display" : "Jane Doe"
      },
      "created" : "2024-12-10T00:00:00.0Z",
      "activity" : [{
        "reference" : {
          "reference" : "RequestGroup/85"
        }
      }]
    }
  },
  {
    "fullUrl" : "http://cancerscreeningcds.github.io/bcsm-cds/RequestGroup/85",
    "resource" : {
      "resourceType" : "RequestGroup",
      "id" : "85",
      "text" : {
        "status" : "extensions",
        "div" : "<div xmlns=\"http://www.w3.org/1999/xhtml\"><a name=\"RequestGroup_85\"> </a><p class=\"res-header-id\"><b>Generated Narrative: RequestGroup 85</b></p><a name=\"85\"> </a><a name=\"hc85\"> </a><a name=\"85-en-US\"> </a><p><b>instantiatesCanonical</b>: <a href=\"PlanDefinition-PrimaryScreeningDecision.html\">Primary Screening Decision</a></p><p><b>status</b>: Draft</p><p><b>intent</b>: Proposal</p><p><b>subject</b>: <a href=\"Bundle-act-sdmcontinueage_act-sdmcontinuelifexp_end-decisionhighrisk.html#Patient_55c03346-9d8e-4810-a819-ada1cdbc00ea\">Jane Doe</a></p><blockquote><p><b>action</b></p><blockquote><p><b>id</b></p>SDMContinueScreeningAge</blockquote><p><b>title</b>: Shared decision making to continue screening based on age</p><p><b>description</b>: Decision to continue screening mammography in average risk women age 75 years or older should be based on shared decision-making.\n\nThe USPSTF concludes that the evidence is insufficient to determine the balance of benefits and harms of screening mammography in women 75 years or older.</p><p><b>code</b>: <span title=\"Codes:{http://cancerscreeningcds.github.io/bcsm-cds/CodeSystem/plan-definition-action-code-system sdmcontinue}\">Shared decision making to continue screening</span></p><h3>Documentations</h3><table class=\"grid\"><tr><td style=\"display: none\">-</td><td><b>Type</b></td><td><b>Label</b></td><td><b>Display</b></td><td><b>Citation</b></td><td><b>Url</b></td></tr><tr><td style=\"display: none\">*</td><td>Citation</td><td>USPSTF</td><td>Screening for Breast Cancer: US Preventive Services Task Force Recommendation Statement</td><td><div><p>US Preventive Services Task Force. Screening for Breast Cancer: US Preventive Services Task Force Recommendation Statement. JAMA. Published online April 30, 2024.</p>\n</div></td><td><a href=\"https://www.uspreventiveservicestaskforce.org/uspstf/recommendation/breast-cancer-screening\">https://www.uspreventiveservicestaskforce.org/uspstf/recommendation/breast-cancer-screening</a></td></tr></table><p><b>resource</b>: <a href=\"Bundle-PrimaryScreeningDecision_act-sdmcontinueage_act-sdmcontinuelifexp_end-decisionhighrisk.html#CommunicationRequest_86\">Bundle: type = collection</a></p></blockquote><blockquote><p><b>action</b></p><blockquote><p><b>id</b></p>SDMContinueScreeningLifeExp</blockquote><p><b>title</b>: Shared decision making to continue screening based on life expectancy</p><p><b>description</b>: Decision to continue screening mammography in cases of limited life expectancy should be based on shared decision-making.\n\nACS advises that women should continue screening mammography as long as their overall health is good and they have a life expectancy of 10 years or more.\n\nLife expectancy is generally defined as having greater than a 50% probability of surviving 10 years. A validated tool such as www.eprognosis.com can help guide decision making.</p><p><b>code</b>: <span title=\"Codes:{http://cancerscreeningcds.github.io/bcsm-cds/CodeSystem/plan-definition-action-code-system sdmcontinue}\">Shared decision making to continue screening</span></p><h3>Documentations</h3><table class=\"grid\"><tr><td style=\"display: none\">-</td><td><b>Type</b></td><td><b>Label</b></td><td><b>Display</b></td><td><b>Citation</b></td><td><b>Url</b></td></tr><tr><td style=\"display: none\">*</td><td>Citation</td><td>ACS</td><td>Breast Cancer Screening for Women at Average Risk: 2015 Guideline Update From the American Cancer Society</td><td><div><p>Saslow D, Boetes C, Burke W, Harms S, Leach MO, Lehman CD, Morris E, Pisano E, Schnall M, Sener S, Smith RA, Warner E, Yaffe M, Andrews KS, Russell CA; American Cancer Society Breast Cancer Advisory Group. American Cancer Society guidelines for breast screening with MRI as an adjunct to mammography. CA Cancer J Clin. 2007 Mar-Apr;57(2):75-89.</p>\n</div></td><td><a href=\"https://jamanetwork.com/journals/jama/fullarticle/2463262\">https://jamanetwork.com/journals/jama/fullarticle/2463262</a></td></tr></table><p><b>resource</b>: <a href=\"Bundle-PrimaryScreeningDecision_act-sdmcontinueage_act-sdmcontinuelifexp_end-decisionhighrisk.html#CommunicationRequest_87\">Bundle: type = collection</a></p></blockquote><blockquote><p><b>action</b></p><blockquote><p><b>id</b></p>ACSMammoAfterBrca</blockquote><p><b>Recommendation Flag Extension</b>: <span title=\"Codes:{http://cancerscreeningcds.github.io/bcsm-cds/CodeSystem/recommendation-flag-code-system overdue}\">Overdue</span></p><p><b>title</b>: Annual screening mammogram</p><p><b>description</b>: Annual screening mammogram after 5 years from breast cancer onset is recomended.</p><p><b>code</b>: <span title=\"Codes:{http://loinc.org 24606-6}\">MG Breast Screening</span></p><h3>Documentations</h3><table class=\"grid\"><tr><td style=\"display: none\">-</td><td><b>Type</b></td><td><b>Label</b></td><td><b>Display</b></td><td><b>Url</b></td></tr><tr><td style=\"display: none\">*</td><td>Citation</td><td>ACS</td><td>American Cancer Society Recommendations for the Early Detection of Breast Cancer</td><td><a href=\"https://www.cancer.org/cancer/types/breast-cancer/screening-tests-and-early-detection/american-cancer-society-recommendations-for-the-early-detection-of-breast-cancer.html\">https://www.cancer.org/cancer/types/breast-cancer/screening-tests-and-early-detection/american-cancer-society-recommendations-for-the-early-detection-of-breast-cancer.html</a></td></tr></table><p><b>timing</b>: Events: 2024-01-01 , Once per 1 year</p><p><b>resource</b>: <a href=\"Bundle-PrimaryScreeningDecision_act-sdmcontinueage_act-sdmcontinuelifexp_end-decisionhighrisk.html#ServiceRequest_88\">Bundle: type = collection</a></p></blockquote></div>"
      },
      "instantiatesCanonical" : ["http://cancerscreeningcds.github.io/bcsm-cds/PlanDefinition/PrimaryScreeningDecision"],
      "status" : "draft",
      "intent" : "proposal",
      "subject" : {
        "reference" : "Patient/55c03346-9d8e-4810-a819-ada1cdbc00ea",
        "display" : "Jane Doe"
      },
      "action" : [{
        "id" : "SDMContinueScreeningAge",
        "title" : "Shared decision making to continue screening based on age",
        "description" : "Decision to continue screening mammography in average risk women age 75 years or older should be based on shared decision-making.\n\nThe USPSTF concludes that the evidence is insufficient to determine the balance of benefits and harms of screening mammography in women 75 years or older.",
        "code" : [{
          "coding" : [{
            "system" : "http://cancerscreeningcds.github.io/bcsm-cds/CodeSystem/plan-definition-action-code-system",
            "code" : "sdmcontinue",
            "display" : "Shared decision making to continue screening"
          }]
        }],
        "documentation" : [{
          "type" : "citation",
          "label" : "USPSTF",
          "display" : "Screening for Breast Cancer: US Preventive Services Task Force Recommendation Statement",
          "citation" : "US Preventive Services Task Force. Screening for Breast Cancer: US Preventive Services Task Force Recommendation Statement. JAMA. Published online April 30, 2024.",
          "url" : "https://www.uspreventiveservicestaskforce.org/uspstf/recommendation/breast-cancer-screening"
        }],
        "resource" : {
          "reference" : "CommunicationRequest/86"
        }
      },
      {
        "id" : "SDMContinueScreeningLifeExp",
        "title" : "Shared decision making to continue screening based on life expectancy",
        "description" : "Decision to continue screening mammography in cases of limited life expectancy should be based on shared decision-making.\n\nACS advises that women should continue screening mammography as long as their overall health is good and they have a life expectancy of 10 years or more.\n\nLife expectancy is generally defined as having greater than a 50% probability of surviving 10 years. A validated tool such as www.eprognosis.com can help guide decision making.",
        "code" : [{
          "coding" : [{
            "system" : "http://cancerscreeningcds.github.io/bcsm-cds/CodeSystem/plan-definition-action-code-system",
            "code" : "sdmcontinue",
            "display" : "Shared decision making to continue screening"
          }]
        }],
        "documentation" : [{
          "type" : "citation",
          "label" : "ACS",
          "display" : "Breast Cancer Screening for Women at Average Risk: 2015 Guideline Update From the American Cancer Society",
          "citation" : "Saslow D, Boetes C, Burke W, Harms S, Leach MO, Lehman CD, Morris E, Pisano E, Schnall M, Sener S, Smith RA, Warner E, Yaffe M, Andrews KS, Russell CA; American Cancer Society Breast Cancer Advisory Group. American Cancer Society guidelines for breast screening with MRI as an adjunct to mammography. CA Cancer J Clin. 2007 Mar-Apr;57(2):75-89.",
          "url" : "https://jamanetwork.com/journals/jama/fullarticle/2463262"
        }],
        "resource" : {
          "reference" : "CommunicationRequest/87"
        }
      },
      {
        "id" : "ACSMammoAfterBrca",
        "extension" : [{
          "url" : "http://cancerscreeningcds.github.io/bcsm-cds/StructureDefinition/csm-recommendation-flag",
          "valueCodeableConcept" : {
            "coding" : [{
              "system" : "http://cancerscreeningcds.github.io/bcsm-cds/CodeSystem/recommendation-flag-code-system",
              "code" : "overdue",
              "display" : "Overdue"
            }]
          }
        }],
        "title" : "Annual screening mammogram",
        "description" : "Annual screening mammogram after 5 years from breast cancer onset is recomended.",
        "code" : [{
          "coding" : [{
            "system" : "http://loinc.org",
            "code" : "24606-6",
            "display" : "MG Breast Screening"
          }]
        }],
        "documentation" : [{
          "type" : "citation",
          "label" : "ACS",
          "display" : "American Cancer Society Recommendations for the Early Detection of Breast Cancer",
          "url" : "https://www.cancer.org/cancer/types/breast-cancer/screening-tests-and-early-detection/american-cancer-society-recommendations-for-the-early-detection-of-breast-cancer.html"
        }],
        "timingTiming" : {
          "event" : ["2024-01-01"],
          "repeat" : {
            "boundsPeriod" : {
              "start" : "2024-01-01"
            },
            "frequency" : 1,
            "period" : 1,
            "periodUnit" : "a"
          }
        },
        "resource" : {
          "reference" : "ServiceRequest/88"
        }
      }]
    }
  },
  {
    "fullUrl" : "http://cancerscreeningcds.github.io/bcsm-cds/CommunicationRequest/86",
    "resource" : {
      "resourceType" : "CommunicationRequest",
      "id" : "86",
      "text" : {
        "status" : "generated",
        "div" : "<div xmlns=\"http://www.w3.org/1999/xhtml\"><a name=\"CommunicationRequest_86\"> </a><p class=\"res-header-id\"><b>Generated Narrative: CommunicationRequest 86</b></p><a name=\"86\"> </a><a name=\"hc86\"> </a><a name=\"86-en-US\"> </a><p><b>basedOn</b>: <a href=\"ActivityDefinition-CommunicateSDMContinueScreening.html\">Communicate Shared Decision Making to Continue Screening</a></p><p><b>status</b>: option</p><p><b>subject</b>: <a href=\"Bundle-act-sdmcontinueage_act-sdmcontinuelifexp_end-decisionhighrisk.html#Patient_55c03346-9d8e-4810-a819-ada1cdbc00ea\">Jane Doe</a></p><h3>Payloads</h3><table class=\"grid\"><tr><td style=\"display: none\">-</td><td><b>Content[x]</b></td></tr><tr><td style=\"display: none\">*</td><td>Shared decision making to continue screening</td></tr></table><p><b>reasonCode</b>: <span title=\"Codes:{http://cancerscreeningcds.github.io/bcsm-cds/CodeSystem/screening-observation-code-system ageover74}\">Age over 74 years</span></p></div>"
      },
      "basedOn" : [{
        "reference" : "http://cancerscreeningcds.github.io/bcsm-cds/ActivityDefinition/CommunicateSDMContinueScreening"
      }],
      "status" : "option",
      "subject" : {
        "reference" : "Patient/55c03346-9d8e-4810-a819-ada1cdbc00ea",
        "display" : "Jane Doe"
      },
      "payload" : [{
        "contentString" : "Shared decision making to continue screening"
      }],
      "reasonCode" : [{
        "coding" : [{
          "system" : "http://cancerscreeningcds.github.io/bcsm-cds/CodeSystem/screening-observation-code-system",
          "code" : "ageover74",
          "display" : "Age over 74 years"
        }]
      }]
    }
  },
  {
    "fullUrl" : "http://cancerscreeningcds.github.io/bcsm-cds/CommunicationRequest/87",
    "resource" : {
      "resourceType" : "CommunicationRequest",
      "id" : "87",
      "text" : {
        "status" : "generated",
        "div" : "<div xmlns=\"http://www.w3.org/1999/xhtml\"><a name=\"CommunicationRequest_87\"> </a><p class=\"res-header-id\"><b>Generated Narrative: CommunicationRequest 87</b></p><a name=\"87\"> </a><a name=\"hc87\"> </a><a name=\"87-en-US\"> </a><p><b>basedOn</b>: <a href=\"ActivityDefinition-CommunicateSDMContinueScreening.html\">Communicate Shared Decision Making to Continue Screening</a></p><p><b>status</b>: option</p><p><b>subject</b>: <a href=\"Bundle-act-sdmcontinueage_act-sdmcontinuelifexp_end-decisionhighrisk.html#Patient_55c03346-9d8e-4810-a819-ada1cdbc00ea\">Jane Doe</a></p><h3>Payloads</h3><table class=\"grid\"><tr><td style=\"display: none\">-</td><td><b>Content[x]</b></td></tr><tr><td style=\"display: none\">*</td><td>Shared decision making to continue screening</td></tr></table><p><b>reasonCode</b>: <span title=\"Codes:{http://cancerscreeningcds.github.io/bcsm-cds/CodeSystem/screening-observation-code-system lifeexp}\">Reduced life expectancy indicator</span></p></div>"
      },
      "basedOn" : [{
        "reference" : "http://cancerscreeningcds.github.io/bcsm-cds/ActivityDefinition/CommunicateSDMContinueScreening"
      }],
      "status" : "option",
      "subject" : {
        "reference" : "Patient/55c03346-9d8e-4810-a819-ada1cdbc00ea",
        "display" : "Jane Doe"
      },
      "payload" : [{
        "contentString" : "Shared decision making to continue screening"
      }],
      "reasonCode" : [{
        "coding" : [{
          "system" : "http://cancerscreeningcds.github.io/bcsm-cds/CodeSystem/screening-observation-code-system",
          "code" : "lifeexp",
          "display" : "Reduced life expectancy indicator"
        }]
      }]
    }
  },
  {
    "fullUrl" : "http://cancerscreeningcds.github.io/bcsm-cds/ServiceRequest/88",
    "resource" : {
      "resourceType" : "ServiceRequest",
      "id" : "88",
      "text" : {
        "status" : "generated",
        "div" : "<div xmlns=\"http://www.w3.org/1999/xhtml\"><a name=\"ServiceRequest_88\"> </a><p class=\"res-header-id\"><b>Generated Narrative: ServiceRequest 88</b></p><a name=\"88\"> </a><a name=\"hc88\"> </a><a name=\"88-en-US\"> </a><p><b>basedOn</b>: <a href=\"ActivityDefinition-BreastCancerScreeningServiceRequest.html\">Breast Cancer Screening Service Request</a></p><p><b>status</b>: option</p><p><b>intent</b>: Proposal</p><p><b>code</b>: <span title=\"Codes:{http://loinc.org 24606-6}\">MG Breast Screening</span></p><p><b>subject</b>: <a href=\"Bundle-act-sdmcontinueage_act-sdmcontinuelifexp_end-decisionhighrisk.html#Patient_55c03346-9d8e-4810-a819-ada1cdbc00ea\">Jane Doe</a></p><p><b>occurrence</b>: 2024-01-01</p><p><b>reasonCode</b>: <span title=\"Codes:{http://cancerscreeningcds.github.io/bcsm-cds/CodeSystem/screening-observation-code-system hxbreastca}\">Previous breast cancer</span></p></div>"
      },
      "basedOn" : [{
        "reference" : "http://cancerscreeningcds.github.io/bcsm-cds/ActivityDefinition/BreastCancerScreeningServiceRequest"
      }],
      "status" : "option",
      "intent" : "proposal",
      "code" : {
        "coding" : [{
          "system" : "http://loinc.org",
          "code" : "24606-6",
          "display" : "MG Breast Screening"
        }]
      },
      "subject" : {
        "reference" : "Patient/55c03346-9d8e-4810-a819-ada1cdbc00ea",
        "display" : "Jane Doe"
      },
      "occurrenceDateTime" : "2024-01-01",
      "reasonCode" : [{
        "coding" : [{
          "system" : "http://cancerscreeningcds.github.io/bcsm-cds/CodeSystem/screening-observation-code-system",
          "code" : "hxbreastca",
          "display" : "Previous breast cancer"
        }]
      }]
    }
  }]
}