<?xml version="1.0" encoding="UTF-8"?>

<Bundle xmlns="http://hl7.org/fhir">
  <id value="FollowupScreeningResult_JosephineGreene-past-breast-pain-adh-biopsy"/>
  <type value="collection"/>
  <entry>
    <fullUrl value="http://cancerscreeningcds.github.io/bcsm-cds/CarePlan/321"/>
    <resource>
      <CarePlan>
        <id value="321"/>
        <text>
          <status value="generated"/><div xmlns="http://www.w3.org/1999/xhtml"><a name="CarePlan_321"> </a><p class="res-header-id"><b>Generated Narrative: CarePlan 321</b></p><a name="321"> </a><a name="hc321"> </a><a name="321-en-US"> </a><p><b>instantiatesCanonical</b>: <a href="PlanDefinition-flow-FollowupScreeningResult.html">Followup Screening Result</a></p><p><b>status</b>: Draft</p><p><b>intent</b>: Proposal</p><p><b>subject</b>: <a href="Bundle-JosephineGreene-past-breast-pain-adh-biopsy.html#Patient_JosephineGreene">Josephine38 Greene57</a></p><p><b>created</b>: 2024-12-10 00:00:00+0000</p><h3>Activities</h3><table class="grid"><tr><td style="display: none">-</td><td><b>Reference</b></td></tr><tr><td style="display: none">*</td><td><a href="Bundle-FollowupScreeningResult_JosephineGreene-past-breast-pain-adh-biopsy.html#RequestGroup_322">Bundle: type = collection</a></td></tr></table></div>
        </text>
        <instantiatesCanonical value="http://cancerscreeningcds.github.io/bcsm-cds/PlanDefinition/flow-FollowupScreeningResult"/>
        <status value="draft"/>
        <intent value="proposal"/>
        <subject>
          <reference value="Patient/JosephineGreene"/>
          <display value="Josephine38 Greene57"/>
        </subject>
        <created value="2024-12-10T00:00:00.0Z"/>
        <activity>
          <reference>
            <reference value="RequestGroup/322"/>
          </reference>
        </activity>
      </CarePlan>
    </resource>
  </entry>
  <entry>
    <fullUrl value="http://cancerscreeningcds.github.io/bcsm-cds/RequestGroup/322"/>
    <resource>
      <RequestGroup>
        <id value="322"/>
        <text>
          <status value="extensions"/><div xmlns="http://www.w3.org/1999/xhtml"><a name="RequestGroup_322"> </a><p class="res-header-id"><b>Generated Narrative: RequestGroup 322</b></p><a name="322"> </a><a name="hc322"> </a><a name="322-en-US"> </a><p><b>instantiatesCanonical</b>: <a href="PlanDefinition-flow-FollowupScreeningResult.html">Followup Screening Result</a></p><p><b>status</b>: Draft</p><p><b>intent</b>: Proposal</p><p><b>subject</b>: <a href="Bundle-JosephineGreene-past-breast-pain-adh-biopsy.html#Patient_JosephineGreene">Josephine38 Greene57</a></p><blockquote><p><b>action</b></p><blockquote><p><b>id</b></p>FollowupAtypicalBiopsyResult</blockquote><p><b>Recommendation Flag Extension</b>: <span title="Codes:{http://cancerscreeningcds.github.io/bcsm-cds/CodeSystem/recommendation-flag-code-system due}">Due</span></p><p><b>title</b>: Refer to breast surgeon</p><p><b>description</b>: Atypical fndings, including ADH and non-classic LCIS, should be referred for potential excision.

Atypical ductal hyperplasia (ADH) and non-classic lobular carcinoma in situ (LCIS), including pleomorphic or florid LCIS, should be referred to breast surgeon for potential excision.

Classic LCIS and atypical lobular hyperplasia (ALH) are typically candidates for observation with clinical and imaging follow-up but may benefit from excision in certain circumstances.</p><p><b>code</b>: <span title="Codes:{http://cancerscreeningcds.github.io/bcsm-cds/CodeSystem/plan-definition-action-code-system surgicalreferral}">Breast surgeon referral</span></p><h3>Documentations</h3><table class="grid"><tr><td style="display: none">-</td><td><b>Type</b></td><td><b>Label</b></td><td><b>Display</b></td><td><b>Url</b></td></tr><tr><td style="display: none">*</td><td>Citation</td><td>ASBrS</td><td>The American Society of Breast Surgeons Resource Guide: Surgical Management of Benign or High-Risk Lesions (Feb 2025)</td><td><a href="https://www.breastsurgeons.org/docs/statements/asbrs-rg-high-risk-lesions.pdf">https://www.breastsurgeons.org/docs/statements/asbrs-rg-high-risk-lesions.pdf</a></td></tr></table><p><b>timing</b>: Events: 2024-11-20 </p><p><b>resource</b>: <a href="Bundle-FollowupScreeningResult_JosephineGreene-past-breast-pain-adh-biopsy.html#ServiceRequest_323">Bundle: type = collection</a></p></blockquote></div>
        </text>
        <instantiatesCanonical value="http://cancerscreeningcds.github.io/bcsm-cds/PlanDefinition/flow-FollowupScreeningResult"/>
        <status value="draft"/>
        <intent value="proposal"/>
        <subject>
          <reference value="Patient/JosephineGreene"/>
          <display value="Josephine38 Greene57"/>
        </subject>
        <action id="FollowupAtypicalBiopsyResult">
          <extension url="http://cancerscreeningcds.github.io/bcsm-cds/StructureDefinition/csm-recommendation-flag">
            <valueCodeableConcept>
              <coding>
                <system value="http://cancerscreeningcds.github.io/bcsm-cds/CodeSystem/recommendation-flag-code-system"/>
                <code value="due"/>
                <display value="Due"/>
              </coding>
            </valueCodeableConcept>
          </extension>
          <title value="Refer to breast surgeon"/>
          <description value="Atypical fndings, including ADH and non-classic LCIS, should be referred for potential excision.&#xA;&#xA;Atypical ductal hyperplasia (ADH) and non-classic lobular carcinoma in situ (LCIS), including pleomorphic or florid LCIS, should be referred to breast surgeon for potential excision.&#xA;&#xA;Classic LCIS and atypical lobular hyperplasia (ALH) are typically candidates for observation with clinical and imaging follow-up but may benefit from excision in certain circumstances."/>
          <code>
            <coding>
              <system value="http://cancerscreeningcds.github.io/bcsm-cds/CodeSystem/plan-definition-action-code-system"/>
              <code value="surgicalreferral"/>
              <display value="Breast surgeon referral"/>
            </coding>
          </code>
          <documentation>
            <type value="citation"/>
            <label value="ASBrS"/>
            <display value="The American Society of Breast Surgeons Resource Guide: Surgical Management of Benign or High-Risk Lesions (Feb 2025)"/>
            <url value="https://www.breastsurgeons.org/docs/statements/asbrs-rg-high-risk-lesions.pdf"/>
          </documentation>
          <timingTiming>
            <event value="2024-11-20"/>
          </timingTiming>
          <resource>
            <reference value="ServiceRequest/323"/>
          </resource>
        </action>
      </RequestGroup>
    </resource>
  </entry>
  <entry>
    <fullUrl value="http://cancerscreeningcds.github.io/bcsm-cds/ServiceRequest/323"/>
    <resource>
      <ServiceRequest>
        <id value="323"/>
        <text>
          <status value="generated"/><div xmlns="http://www.w3.org/1999/xhtml"><a name="ServiceRequest_323"> </a><p class="res-header-id"><b>Generated Narrative: ServiceRequest 323</b></p><a name="323"> </a><a name="hc323"> </a><a name="323-en-US"> </a><p><b>basedOn</b>: <a href="ActivityDefinition-BreastCancerScreeningServiceRequest.html">Breast Cancer Screening Service Request</a></p><p><b>status</b>: option</p><p><b>intent</b>: Proposal</p><p><b>code</b>: <span title="Codes:{http://cancerscreeningcds.github.io/bcsm-cds/CodeSystem/plan-definition-action-code-system surgicalreferral}">Breast surgeon referral</span></p><p><b>subject</b>: <a href="Bundle-JosephineGreene-past-breast-pain-adh-biopsy.html#Patient_JosephineGreene">Josephine38 Greene57</a></p><p><b>occurrence</b>: 2024-11-20</p><p><b>reasonCode</b>: <span title="Codes:{http://cancerscreeningcds.github.io/bcsm-cds/CodeSystem/biopsy-result-observation-code-system Atypical}">Atypical breast finding</span></p></div>
        </text>
        <basedOn>
          <reference value="http://cancerscreeningcds.github.io/bcsm-cds/ActivityDefinition/BreastCancerScreeningServiceRequest"/>
        </basedOn>
        <status value="option"/>
        <intent value="proposal"/>
        <code>
          <coding>
            <system value="http://cancerscreeningcds.github.io/bcsm-cds/CodeSystem/plan-definition-action-code-system"/>
            <code value="surgicalreferral"/>
            <display value="Breast surgeon referral"/>
          </coding>
        </code>
        <subject>
          <reference value="Patient/JosephineGreene"/>
          <display value="Josephine38 Greene57"/>
        </subject>
        <occurrenceDateTime value="2024-11-20"/>
        <reasonCode>
          <coding>
            <system value="http://cancerscreeningcds.github.io/bcsm-cds/CodeSystem/biopsy-result-observation-code-system"/>
            <code value="Atypical"/>
            <display value="Atypical breast finding"/>
          </coding>
        </reasonCode>
      </ServiceRequest>
    </resource>
  </entry>
</Bundle>