{
  "resourceType" : "Bundle",
  "id" : "GeneticRiskReferral_eve-fhxgeneinherited_yes_eve-unkvariantstatus_yes_act-geneticreferral",
  "type" : "collection",
  "entry" : [{
    "fullUrl" : "http://cancerscreeningcds.github.io/bcsm-cds/CarePlan/407",
    "resource" : {
      "resourceType" : "CarePlan",
      "id" : "407",
      "text" : {
        "status" : "generated",
        "div" : "<div xmlns=\"http://www.w3.org/1999/xhtml\"><a name=\"CarePlan_407\"> </a><p class=\"res-header-id\"><b>Generated Narrative: CarePlan 407</b></p><a name=\"407\"> </a><a name=\"hc407\"> </a><a name=\"407-en-US\"> </a><p><b>instantiatesCanonical</b>: <a href=\"PlanDefinition-flow-GeneticRiskReferral.html\">Genetic Risk Referral</a></p><p><b>status</b>: Draft</p><p><b>intent</b>: Proposal</p><p><b>subject</b>: <a href=\"Bundle-eve-Age45to54_act-acsavgrecs45_act-uspstfavgrecs.html#Patient_defaultPatient\">Jane Doe</a></p><p><b>created</b>: 2024-12-10 00:00:00+0000</p><h3>Activities</h3><table class=\"grid\"><tr><td style=\"display: none\">-</td><td><b>Reference</b></td></tr><tr><td style=\"display: none\">*</td><td><a href=\"Bundle-GeneticRiskReferral_eve-fhxgeneinherited_yes_eve-unkvariantstatus_yes_act-geneticreferral.html#RequestGroup_408\">Bundle: type = collection</a></td></tr></table></div>"
      },
      "instantiatesCanonical" : ["http://cancerscreeningcds.github.io/bcsm-cds/PlanDefinition/flow-GeneticRiskReferral"],
      "status" : "draft",
      "intent" : "proposal",
      "subject" : {
        "reference" : "Patient/defaultPatient",
        "display" : "Jane Doe"
      },
      "created" : "2024-12-10T00:00:00.0Z",
      "activity" : [{
        "reference" : {
          "reference" : "RequestGroup/408"
        }
      }]
    }
  },
  {
    "fullUrl" : "http://cancerscreeningcds.github.io/bcsm-cds/RequestGroup/408",
    "resource" : {
      "resourceType" : "RequestGroup",
      "id" : "408",
      "text" : {
        "status" : "generated",
        "div" : "<div xmlns=\"http://www.w3.org/1999/xhtml\"><a name=\"RequestGroup_408\"> </a><p class=\"res-header-id\"><b>Generated Narrative: RequestGroup 408</b></p><a name=\"408\"> </a><a name=\"hc408\"> </a><a name=\"408-en-US\"> </a><p><b>instantiatesCanonical</b>: <a href=\"PlanDefinition-flow-GeneticRiskReferral.html\">Genetic Risk Referral</a></p><p><b>status</b>: Draft</p><p><b>intent</b>: Proposal</p><p><b>subject</b>: <a href=\"Bundle-eve-Age45to54_act-acsavgrecs45_act-uspstfavgrecs.html#Patient_defaultPatient\">Jane Doe</a></p><blockquote><p><b>action</b></p><blockquote><p><b>id</b></p>GeneticReferralVariant</blockquote><p><b>title</b>: Referral for genetic risk counseling</p><p><b>description</b>: Referral for genetic counseling if not previously evaluated for variant of concern based on known family history.\n\nAny blood relative with known BRCA1/BRCA2 variants, Li-Fraumeni syndrome (TP53 variant), Cowden or Bannayan-Riley-Ruvalcaba syndromes (PTEN variants), and other variants known to be associated with increased risk of development of breast cancer. Variants may include ATM, BARD1, CDH1, CHEK2, NF1, PALB2, RAD51C, RAD51D, STK11.</p><h3>Documentations</h3><table class=\"grid\"><tr><td style=\"display: none\">-</td><td><b>Type</b></td><td><b>Label</b></td><td><b>Display</b></td><td><b>Citation</b></td><td><b>Url</b></td></tr><tr><td style=\"display: none\">*</td><td>Citation</td><td>USPSTF</td><td>BRCA-Related Cancer: Risk Assessment, Genetic Counseling, and Genetic Testing</td><td><div><p>US Preventive Services Task Force. Risk Assessment, Genetic Counseling, and Genetic Testing for BRCA-Related Cancer: US Preventive Services Task Force Recommendation Statement. JAMA. 2019;322(7):652–665.</p>\n</div></td><td><a href=\"https://www.uspreventiveservicestaskforce.org/uspstf/recommendation/brca-related-cancer-risk-assessment-genetic-counseling-and-genetic-testing\">https://www.uspreventiveservicestaskforce.org/uspstf/recommendation/brca-related-cancer-risk-assessment-genetic-counseling-and-genetic-testing</a></td></tr></table><p><b>resource</b>: <a href=\"Bundle-GeneticRiskReferral_eve-fhxgeneinherited_yes_eve-unkvariantstatus_yes_act-geneticreferral.html#ServiceRequest_409\">Bundle: type = collection</a></p></blockquote></div>"
      },
      "instantiatesCanonical" : ["http://cancerscreeningcds.github.io/bcsm-cds/PlanDefinition/flow-GeneticRiskReferral"],
      "status" : "draft",
      "intent" : "proposal",
      "subject" : {
        "reference" : "Patient/defaultPatient",
        "display" : "Jane Doe"
      },
      "action" : [{
        "id" : "GeneticReferralVariant",
        "title" : "Referral for genetic risk counseling",
        "description" : "Referral for genetic counseling if not previously evaluated for variant of concern based on known family history.\n\nAny blood relative with known BRCA1/BRCA2 variants, Li-Fraumeni syndrome (TP53 variant), Cowden or Bannayan-Riley-Ruvalcaba syndromes (PTEN variants), and other variants known to be associated with increased risk of development of breast cancer. Variants may include ATM, BARD1, CDH1, CHEK2, NF1, PALB2, RAD51C, RAD51D, STK11.",
        "documentation" : [{
          "type" : "citation",
          "label" : "USPSTF",
          "display" : "BRCA-Related Cancer: Risk Assessment, Genetic Counseling, and Genetic Testing",
          "citation" : "US Preventive Services Task Force. Risk Assessment, Genetic Counseling, and Genetic Testing for BRCA-Related Cancer: US Preventive Services Task Force Recommendation Statement. JAMA. 2019;322(7):652–665.",
          "url" : "https://www.uspreventiveservicestaskforce.org/uspstf/recommendation/brca-related-cancer-risk-assessment-genetic-counseling-and-genetic-testing"
        }],
        "resource" : {
          "reference" : "ServiceRequest/409"
        }
      }]
    }
  },
  {
    "fullUrl" : "http://cancerscreeningcds.github.io/bcsm-cds/ServiceRequest/409",
    "resource" : {
      "resourceType" : "ServiceRequest",
      "id" : "409",
      "text" : {
        "status" : "generated",
        "div" : "<div xmlns=\"http://www.w3.org/1999/xhtml\"><a name=\"ServiceRequest_409\"> </a><p class=\"res-header-id\"><b>Generated Narrative: ServiceRequest 409</b></p><a name=\"409\"> </a><a name=\"hc409\"> </a><a name=\"409-en-US\"> </a><p><b>basedOn</b>: <a href=\"ActivityDefinition-GeneticCounselingReferralRequest.html\">Genetic Counseling Referral Request</a></p><p><b>status</b>: option</p><p><b>intent</b>: Proposal</p><p><b>code</b>: <span title=\"Codes:{http://cancerscreeningcds.github.io/bcsm-cds/CodeSystem/plan-definition-action-code-system geneticriskreferral}\">Genetic risk referral</span></p><p><b>subject</b>: <a href=\"Bundle-eve-Age45to54_act-acsavgrecs45_act-uspstfavgrecs.html#Patient_defaultPatient\">Jane Doe</a></p><p><b>reasonCode</b>: <span title=\"Codes:{http://cancerscreeningcds.github.io/bcsm-cds/CodeSystem/screening-observation-code-system fhxgenetic}\">Family history of inherited cancer susceptibility</span></p></div>"
      },
      "basedOn" : [{
        "reference" : "http://cancerscreeningcds.github.io/bcsm-cds/ActivityDefinition/GeneticCounselingReferralRequest"
      }],
      "status" : "option",
      "intent" : "proposal",
      "code" : {
        "coding" : [{
          "system" : "http://cancerscreeningcds.github.io/bcsm-cds/CodeSystem/plan-definition-action-code-system",
          "code" : "geneticriskreferral",
          "display" : "Genetic risk referral"
        }]
      },
      "subject" : {
        "reference" : "Patient/defaultPatient",
        "display" : "Jane Doe"
      },
      "reasonCode" : [{
        "coding" : [{
          "system" : "http://cancerscreeningcds.github.io/bcsm-cds/CodeSystem/screening-observation-code-system",
          "code" : "fhxgenetic",
          "display" : "Family history of inherited cancer susceptibility"
        }]
      }]
    }
  }]
}