{
  "resourceType" : "Bundle",
  "id" : "HighRiskReferral_eve-fiveyrrisklowpop_eve-ageAtLeast35_act-ConsiderHighRiskReferral",
  "type" : "collection",
  "entry" : [{
    "fullUrl" : "http://cancerscreeningcds.github.io/bcsm-cds/CarePlan/473",
    "resource" : {
      "resourceType" : "CarePlan",
      "id" : "473",
      "text" : {
        "status" : "generated",
        "div" : "<div xmlns=\"http://www.w3.org/1999/xhtml\"><a name=\"CarePlan_473\"> </a><p class=\"res-header-id\"><b>Generated Narrative: CarePlan 473</b></p><a name=\"473\"> </a><a name=\"hc473\"> </a><a name=\"473-en-US\"> </a><p><b>instantiatesCanonical</b>: <a href=\"PlanDefinition-flow-HighRiskReferral.html\">High Risk Referral</a></p><p><b>status</b>: Draft</p><p><b>intent</b>: Proposal</p><p><b>subject</b>: <a href=\"Bundle-eve-fiveyrrisklowpop_eve-ageAtLeast35_act-ConsiderHighRiskReferral.html#Patient_bfea4654-c6cb-4e71-85c4-a4d7de4a1b3d\">Jane Doe</a></p><p><b>created</b>: 2024-12-10 00:00:00+0000</p><h3>Activities</h3><table class=\"grid\"><tr><td style=\"display: none\">-</td><td><b>Reference</b></td></tr><tr><td style=\"display: none\">*</td><td><a href=\"Bundle-HighRiskReferral_eve-fiveyrrisklowpop_eve-ageAtLeast35_act-ConsiderHighRiskReferral.html#RequestGroup_474\">Bundle: type = collection</a></td></tr></table></div>"
      },
      "instantiatesCanonical" : ["http://cancerscreeningcds.github.io/bcsm-cds/PlanDefinition/flow-HighRiskReferral"],
      "status" : "draft",
      "intent" : "proposal",
      "subject" : {
        "reference" : "Patient/bfea4654-c6cb-4e71-85c4-a4d7de4a1b3d",
        "display" : "Jane Doe"
      },
      "created" : "2024-12-10T00:00:00.0Z",
      "activity" : [{
        "reference" : {
          "reference" : "RequestGroup/474"
        }
      }]
    }
  },
  {
    "fullUrl" : "http://cancerscreeningcds.github.io/bcsm-cds/RequestGroup/474",
    "resource" : {
      "resourceType" : "RequestGroup",
      "id" : "474",
      "text" : {
        "status" : "generated",
        "div" : "<div xmlns=\"http://www.w3.org/1999/xhtml\"><a name=\"RequestGroup_474\"> </a><p class=\"res-header-id\"><b>Generated Narrative: RequestGroup 474</b></p><a name=\"474\"> </a><a name=\"hc474\"> </a><a name=\"474-en-US\"> </a><p><b>instantiatesCanonical</b>: <a href=\"PlanDefinition-flow-HighRiskReferral.html\">High Risk Referral</a></p><p><b>status</b>: Draft</p><p><b>intent</b>: Proposal</p><p><b>subject</b>: <a href=\"Bundle-eve-fiveyrrisklowpop_eve-ageAtLeast35_act-ConsiderHighRiskReferral.html#Patient_bfea4654-c6cb-4e71-85c4-a4d7de4a1b3d\">Jane Doe</a></p><blockquote><p><b>action</b></p><blockquote><p><b>id</b></p>HighRiskReferral5YRiskHigherThanAverage</blockquote><p><b>title</b>: Consider referral for high risk breast specialty evaluation</p><p><b>description</b>: Consider referral to breast specialist to discuss primary risk reduction interventions.\n\nThese may include medications to reduce risk (chemoprevention), risk reducing surgery or enhanced surveillance.</p><h3>Documentations</h3><table class=\"grid\"><tr><td style=\"display: none\">-</td><td><b>Type</b></td><td><b>Label</b></td><td><b>Display</b></td><td><b>Citation</b></td><td><b>Url</b></td></tr><tr><td style=\"display: none\">*</td><td>Citation</td><td>USPSTF</td><td>Breast Cancer: Medication Use to Reduce Risk</td><td><div><p>US Preventive Services Task Force. Medication Use to Reduce Risk of Breast Cancer: US Preventive Services Task Force Recommendation Statement. JAMA. 2019;322(9):857–867.</p>\n</div></td><td><a href=\"https://www.uspreventiveservicestaskforce.org/uspstf/recommendation/breast-cancer-medications-for-risk-reduction\">https://www.uspreventiveservicestaskforce.org/uspstf/recommendation/breast-cancer-medications-for-risk-reduction</a></td></tr></table><p><b>resource</b>: <a href=\"Bundle-HighRiskReferral_eve-fiveyrrisklowpop_eve-ageAtLeast35_act-ConsiderHighRiskReferral.html#ServiceRequest_475\">Bundle: type = collection</a></p></blockquote></div>"
      },
      "instantiatesCanonical" : ["http://cancerscreeningcds.github.io/bcsm-cds/PlanDefinition/flow-HighRiskReferral"],
      "status" : "draft",
      "intent" : "proposal",
      "subject" : {
        "reference" : "Patient/bfea4654-c6cb-4e71-85c4-a4d7de4a1b3d",
        "display" : "Jane Doe"
      },
      "action" : [{
        "id" : "HighRiskReferral5YRiskHigherThanAverage",
        "title" : "Consider referral for high risk breast specialty evaluation",
        "description" : "Consider referral to breast specialist to discuss primary risk reduction interventions.\n\nThese may include medications to reduce risk (chemoprevention), risk reducing surgery or enhanced surveillance.",
        "documentation" : [{
          "type" : "citation",
          "label" : "USPSTF",
          "display" : "Breast Cancer: Medication Use to Reduce Risk",
          "citation" : "US Preventive Services Task Force. Medication Use to Reduce Risk of Breast Cancer: US Preventive Services Task Force Recommendation Statement. JAMA. 2019;322(9):857–867.",
          "url" : "https://www.uspreventiveservicestaskforce.org/uspstf/recommendation/breast-cancer-medications-for-risk-reduction"
        }],
        "resource" : {
          "reference" : "ServiceRequest/475"
        }
      }]
    }
  },
  {
    "fullUrl" : "http://cancerscreeningcds.github.io/bcsm-cds/ServiceRequest/475",
    "resource" : {
      "resourceType" : "ServiceRequest",
      "id" : "475",
      "text" : {
        "status" : "generated",
        "div" : "<div xmlns=\"http://www.w3.org/1999/xhtml\"><a name=\"ServiceRequest_475\"> </a><p class=\"res-header-id\"><b>Generated Narrative: ServiceRequest 475</b></p><a name=\"475\"> </a><a name=\"hc475\"> </a><a name=\"475-en-US\"> </a><p><b>basedOn</b>: <a href=\"ActivityDefinition-HighRiskSpecialtyReferralRequest.html\">High Risk Specialty Referral Request</a></p><p><b>status</b>: option</p><p><b>intent</b>: Proposal</p><p><b>code</b>: <span title=\"Codes:{http://cancerscreeningcds.github.io/bcsm-cds/CodeSystem/plan-definition-action-code-system highriskreferral}\">High risk referral</span></p><p><b>subject</b>: <a href=\"Bundle-eve-fiveyrrisklowpop_eve-ageAtLeast35_act-ConsiderHighRiskReferral.html#Patient_bfea4654-c6cb-4e71-85c4-a4d7de4a1b3d\">Jane Doe</a></p><p><b>reasonCode</b>: <span title=\"Codes:{http://cancerscreeningcds.github.io/bcsm-cds/CodeSystem/screening-observation-code-system higherthanaverage5yrisk}\">5 year risk at least 1.67%</span></p></div>"
      },
      "basedOn" : [{
        "reference" : "http://cancerscreeningcds.github.io/bcsm-cds/ActivityDefinition/HighRiskSpecialtyReferralRequest"
      }],
      "status" : "option",
      "intent" : "proposal",
      "code" : {
        "coding" : [{
          "system" : "http://cancerscreeningcds.github.io/bcsm-cds/CodeSystem/plan-definition-action-code-system",
          "code" : "highriskreferral",
          "display" : "High risk referral"
        }]
      },
      "subject" : {
        "reference" : "Patient/bfea4654-c6cb-4e71-85c4-a4d7de4a1b3d",
        "display" : "Jane Doe"
      },
      "reasonCode" : [{
        "coding" : [{
          "system" : "http://cancerscreeningcds.github.io/bcsm-cds/CodeSystem/screening-observation-code-system",
          "code" : "higherthanaverage5yrisk",
          "display" : "5 year risk at least 1.67%"
        }]
      }]
    }
  }]
}