<?xml version="1.0" encoding="UTF-8"?>

<Bundle xmlns="http://hl7.org/fhir">
  <id value="DecisionToScreen_eve-AgeOver74_yes_eve-LifeExp_yes"/>
  <type value="collection"/>
  <entry>
    <fullUrl value="http://cancerscreeningcds.github.io/bcsm-cds/CarePlan/305"/>
    <resource>
      <CarePlan>
        <id value="305"/>
        <text>
          <status value="generated"/><div xmlns="http://www.w3.org/1999/xhtml"><a name="CarePlan_305"> </a><p class="res-header-id"><b>Generated Narrative: CarePlan 305</b></p><a name="305"> </a><a name="hc305"> </a><a name="305-en-US"> </a><p><b>instantiatesCanonical</b>: <a href="PlanDefinition-flow-DecisionToScreen.html">Decision to Screen</a></p><p><b>status</b>: Draft</p><p><b>intent</b>: Proposal</p><p><b>subject</b>: <a href="Bundle-eve-AgeOver74_yes_eve-LifeExp_yes.html#Patient_b7c6b861-a625-4214-8d94-0620827d7d9d">Jane Doe</a></p><p><b>created</b>: 2024-12-10 00:00:00+0000</p><h3>Activities</h3><table class="grid"><tr><td style="display: none">-</td><td><b>Reference</b></td></tr><tr><td style="display: none">*</td><td><a href="Bundle-DecisionToScreen_eve-AgeOver74_yes_eve-LifeExp_yes.html#RequestGroup_306">Bundle: type = collection</a></td></tr></table></div>
        </text>
        <instantiatesCanonical value="http://cancerscreeningcds.github.io/bcsm-cds/PlanDefinition/flow-DecisionToScreen"/>
        <status value="draft"/>
        <intent value="proposal"/>
        <subject>
          <reference value="Patient/b7c6b861-a625-4214-8d94-0620827d7d9d"/>
          <display value="Jane Doe"/>
        </subject>
        <created value="2024-12-10T00:00:00.0Z"/>
        <activity>
          <reference>
            <reference value="RequestGroup/306"/>
          </reference>
        </activity>
      </CarePlan>
    </resource>
  </entry>
  <entry>
    <fullUrl value="http://cancerscreeningcds.github.io/bcsm-cds/RequestGroup/306"/>
    <resource>
      <RequestGroup>
        <id value="306"/>
        <text>
          <status value="extensions"/><div xmlns="http://www.w3.org/1999/xhtml"><a name="RequestGroup_306"> </a><p class="res-header-id"><b>Generated Narrative: RequestGroup 306</b></p><a name="306"> </a><a name="hc306"> </a><a name="306-en-US"> </a><p><b>instantiatesCanonical</b>: <a href="PlanDefinition-flow-DecisionToScreen.html">Decision to Screen</a></p><p><b>status</b>: Draft</p><p><b>intent</b>: Proposal</p><p><b>subject</b>: <a href="Bundle-eve-AgeOver74_yes_eve-LifeExp_yes.html#Patient_b7c6b861-a625-4214-8d94-0620827d7d9d">Jane Doe</a></p><blockquote><p><b>action</b></p><blockquote><p><b>id</b></p>SDMContinueScreeningAge</blockquote><p><b>title</b>: Shared decision making to continue screening based on age</p><p><b>description</b>: Decision to continue screening mammography in average risk women age 75 years or older should be based on shared decision-making.

The USPSTF concludes that the evidence is insufficient to determine the balance of benefits and harms of screening mammography in women 75 years or older.</p><p><b>code</b>: <span title="Codes:{http://cancerscreeningcds.github.io/bcsm-cds/CodeSystem/plan-definition-action-code-system sdmcontinue}">Shared decision making to continue screening</span></p><h3>Documentations</h3><table class="grid"><tr><td style="display: none">-</td><td><b>Type</b></td><td><b>Label</b></td><td><b>Display</b></td><td><b>Citation</b></td><td><b>Url</b></td></tr><tr><td style="display: none">*</td><td>Citation</td><td>USPSTF</td><td>Screening for Breast Cancer: US Preventive Services Task Force Recommendation Statement</td><td><div><p>US Preventive Services Task Force. Screening for Breast Cancer: US Preventive Services Task Force Recommendation Statement. JAMA. Published online April 30, 2024.</p>
</div></td><td><a href="https://www.uspreventiveservicestaskforce.org/uspstf/recommendation/breast-cancer-screening">https://www.uspreventiveservicestaskforce.org/uspstf/recommendation/breast-cancer-screening</a></td></tr></table><p><b>resource</b>: <a href="Bundle-DecisionToScreen_eve-AgeOver74_yes_eve-LifeExp_yes.html#CommunicationRequest_307">Bundle: type = collection</a></p></blockquote><blockquote><p><b>action</b></p><blockquote><p><b>id</b></p>SDMContinueScreeningLifeExp</blockquote><p><b>title</b>: Shared decision making to continue screening based on life expectancy</p><p><b>description</b>: Decision to continue screening mammography in cases of limited life expectancy should be based on shared decision-making.

ACS advises that women should continue screening mammography as long as their overall health is good and they have a life expectancy of 10 years or more.

Life expectancy is generally defined as having greater than a 50% probability of surviving 10 years. A validated tool such as www.eprognosis.com can help guide decision making.</p><p><b>code</b>: <span title="Codes:{http://cancerscreeningcds.github.io/bcsm-cds/CodeSystem/plan-definition-action-code-system sdmcontinue}">Shared decision making to continue screening</span></p><h3>Documentations</h3><table class="grid"><tr><td style="display: none">-</td><td><b>Type</b></td><td><b>Label</b></td><td><b>Display</b></td><td><b>Citation</b></td><td><b>Url</b></td></tr><tr><td style="display: none">*</td><td>Citation</td><td>ACS</td><td>Breast Cancer Screening for Women at Average Risk: 2015 Guideline Update From the American Cancer Society</td><td><div><p>Saslow D, Boetes C, Burke W, Harms S, Leach MO, Lehman CD, Morris E, Pisano E, Schnall M, Sener S, Smith RA, Warner E, Yaffe M, Andrews KS, Russell CA; American Cancer Society Breast Cancer Advisory Group. American Cancer Society guidelines for breast screening with MRI as an adjunct to mammography. CA Cancer J Clin. 2007 Mar-Apr;57(2):75-89.</p>
</div></td><td><a href="https://jamanetwork.com/journals/jama/fullarticle/2463262">https://jamanetwork.com/journals/jama/fullarticle/2463262</a></td></tr></table><p><b>resource</b>: <a href="Bundle-DecisionToScreen_eve-AgeOver74_yes_eve-LifeExp_yes.html#CommunicationRequest_308">Bundle: type = collection</a></p></blockquote><blockquote><p><b>action</b></p><blockquote><p><b>id</b></p>ACSMammoAvgRiskAgeOver54</blockquote><p><b>Recommendation Flag Extension</b>: <span title="Codes:{http://cancerscreeningcds.github.io/bcsm-cds/CodeSystem/recommendation-flag-code-system overdue}">Overdue</span></p><p><b>title</b>: Biennial screening mammogram after age 54</p><p><b>description</b>: Biennial screening mammogram is recommended after age 54.

Women 55 and older can switch to a mammogram every other year, or they can choose to continue yearly mammograms. Screening should continue as long as a woman is in good health and is expected to live at least 10 more years.</p><p><b>code</b>: <span title="Codes:{http://loinc.org 24606-6}">MG Breast Screening</span></p><h3>Documentations</h3><table class="grid"><tr><td style="display: none">-</td><td><b>Type</b></td><td><b>Label</b></td><td><b>Display</b></td><td><b>Citation</b></td><td><b>Url</b></td></tr><tr><td style="display: none">*</td><td>Citation</td><td>ACS</td><td>Breast Cancer Screening for Women at Average Risk: 2015 Guideline Update From the American Cancer Society</td><td><div><p>Saslow D, Boetes C, Burke W, Harms S, Leach MO, Lehman CD, Morris E, Pisano E, Schnall M, Sener S, Smith RA, Warner E, Yaffe M, Andrews KS, Russell CA; American Cancer Society Breast Cancer Advisory Group. American Cancer Society guidelines for breast screening with MRI as an adjunct to mammography. CA Cancer J Clin. 2007 Mar-Apr;57(2):75-89.</p>
</div></td><td><a href="https://jamanetwork.com/journals/jama/fullarticle/2463262">https://jamanetwork.com/journals/jama/fullarticle/2463262</a></td></tr></table><p><b>timing</b>: Events: 1985-01-01 , Once per 2 years</p><p><b>resource</b>: <a href="Bundle-DecisionToScreen_eve-AgeOver74_yes_eve-LifeExp_yes.html#ServiceRequest_309">Bundle: type = collection</a></p></blockquote><blockquote><p><b>action</b></p><blockquote><p><b>id</b></p>USPSTFAvgRisk</blockquote><p><b>Recommendation Flag Extension</b>: <span title="Codes:{http://cancerscreeningcds.github.io/bcsm-cds/CodeSystem/recommendation-flag-code-system overdue}">Overdue</span></p><p><b>title</b>: Biennial screening mammogram starting age 40</p><p><b>description</b>: Biennial screening mammogram starting at age 40</p><p><b>code</b>: <span title="Codes:{http://loinc.org 24606-6}">MG Breast Screening</span></p><h3>Documentations</h3><table class="grid"><tr><td style="display: none">-</td><td><b>Type</b></td><td><b>Label</b></td><td><b>Display</b></td><td><b>Citation</b></td><td><b>Url</b></td></tr><tr><td style="display: none">*</td><td>Citation</td><td>USPSTF</td><td>Screening for Breast Cancer: US Preventive Services Task Force Recommendation Statement</td><td><div><p>US Preventive Services Task Force. Screening for Breast Cancer: US Preventive Services Task Force Recommendation Statement. JAMA. Published online April 30, 2024.</p>
</div></td><td><a href="https://www.uspreventiveservicestaskforce.org/uspstf/recommendation/breast-cancer-screening">https://www.uspreventiveservicestaskforce.org/uspstf/recommendation/breast-cancer-screening</a></td></tr></table><p><b>timing</b>: Events: 1985-01-01 , Once per 2 years</p><p><b>resource</b>: <a href="Bundle-DecisionToScreen_eve-AgeOver74_yes_eve-LifeExp_yes.html#ServiceRequest_310">Bundle: type = collection</a></p></blockquote></div>
        </text>
        <instantiatesCanonical value="http://cancerscreeningcds.github.io/bcsm-cds/PlanDefinition/flow-DecisionToScreen"/>
        <status value="draft"/>
        <intent value="proposal"/>
        <subject>
          <reference value="Patient/b7c6b861-a625-4214-8d94-0620827d7d9d"/>
          <display value="Jane Doe"/>
        </subject>
        <action id="SDMContinueScreeningAge">
          <title value="Shared decision making to continue screening based on age"/>
          <description value="Decision to continue screening mammography in average risk women age 75 years or older should be based on shared decision-making.&#xA;&#xA;The USPSTF concludes that the evidence is insufficient to determine the balance of benefits and harms of screening mammography in women 75 years or older."/>
          <code>
            <coding>
              <system value="http://cancerscreeningcds.github.io/bcsm-cds/CodeSystem/plan-definition-action-code-system"/>
              <code value="sdmcontinue"/>
              <display value="Shared decision making to continue screening"/>
            </coding>
          </code>
          <documentation>
            <type value="citation"/>
            <label value="USPSTF"/>
            <display value="Screening for Breast Cancer: US Preventive Services Task Force Recommendation Statement"/>
            <citation value="US Preventive Services Task Force. Screening for Breast Cancer: US Preventive Services Task Force Recommendation Statement. JAMA. Published online April 30, 2024."/>
            <url value="https://www.uspreventiveservicestaskforce.org/uspstf/recommendation/breast-cancer-screening"/>
          </documentation>
          <resource>
            <reference value="CommunicationRequest/307"/>
          </resource>
        </action>
        <action id="SDMContinueScreeningLifeExp">
          <title value="Shared decision making to continue screening based on life expectancy"/>
          <description value="Decision to continue screening mammography in cases of limited life expectancy should be based on shared decision-making.&#xA;&#xA;ACS advises that women should continue screening mammography as long as their overall health is good and they have a life expectancy of 10 years or more.&#xA;&#xA;Life expectancy is generally defined as having greater than a 50% probability of surviving 10 years. A validated tool such as www.eprognosis.com can help guide decision making."/>
          <code>
            <coding>
              <system value="http://cancerscreeningcds.github.io/bcsm-cds/CodeSystem/plan-definition-action-code-system"/>
              <code value="sdmcontinue"/>
              <display value="Shared decision making to continue screening"/>
            </coding>
          </code>
          <documentation>
            <type value="citation"/>
            <label value="ACS"/>
            <display value="Breast Cancer Screening for Women at Average Risk: 2015 Guideline Update From the American Cancer Society"/>
            <citation value="Saslow D, Boetes C, Burke W, Harms S, Leach MO, Lehman CD, Morris E, Pisano E, Schnall M, Sener S, Smith RA, Warner E, Yaffe M, Andrews KS, Russell CA; American Cancer Society Breast Cancer Advisory Group. American Cancer Society guidelines for breast screening with MRI as an adjunct to mammography. CA Cancer J Clin. 2007 Mar-Apr;57(2):75-89."/>
            <url value="https://jamanetwork.com/journals/jama/fullarticle/2463262"/>
          </documentation>
          <resource>
            <reference value="CommunicationRequest/308"/>
          </resource>
        </action>
        <action id="ACSMammoAvgRiskAgeOver54">
          <extension url="http://cancerscreeningcds.github.io/bcsm-cds/StructureDefinition/csm-recommendation-flag">
            <valueCodeableConcept>
              <coding>
                <system value="http://cancerscreeningcds.github.io/bcsm-cds/CodeSystem/recommendation-flag-code-system"/>
                <code value="overdue"/>
                <display value="Overdue"/>
              </coding>
            </valueCodeableConcept>
          </extension>
          <title value="Biennial screening mammogram after age 54"/>
          <description value="Biennial screening mammogram is recommended after age 54.&#xA;&#xA;Women 55 and older can switch to a mammogram every other year, or they can choose to continue yearly mammograms. Screening should continue as long as a woman is in good health and is expected to live at least 10 more years."/>
          <code>
            <coding>
              <system value="http://loinc.org"/>
              <code value="24606-6"/>
              <display value="MG Breast Screening"/>
            </coding>
          </code>
          <documentation>
            <type value="citation"/>
            <label value="ACS"/>
            <display value="Breast Cancer Screening for Women at Average Risk: 2015 Guideline Update From the American Cancer Society"/>
            <citation value="Saslow D, Boetes C, Burke W, Harms S, Leach MO, Lehman CD, Morris E, Pisano E, Schnall M, Sener S, Smith RA, Warner E, Yaffe M, Andrews KS, Russell CA; American Cancer Society Breast Cancer Advisory Group. American Cancer Society guidelines for breast screening with MRI as an adjunct to mammography. CA Cancer J Clin. 2007 Mar-Apr;57(2):75-89."/>
            <url value="https://jamanetwork.com/journals/jama/fullarticle/2463262"/>
          </documentation>
          <timingTiming>
            <event value="1985-01-01"/>
            <repeat>
              <boundsPeriod>
                <start value="1985-01-01"/>
              </boundsPeriod>
              <frequency value="1"/>
              <period value="2"/>
              <periodUnit value="a"/>
            </repeat>
          </timingTiming>
          <resource>
            <reference value="ServiceRequest/309"/>
          </resource>
        </action>
        <action id="USPSTFAvgRisk">
          <extension url="http://cancerscreeningcds.github.io/bcsm-cds/StructureDefinition/csm-recommendation-flag">
            <valueCodeableConcept>
              <coding>
                <system value="http://cancerscreeningcds.github.io/bcsm-cds/CodeSystem/recommendation-flag-code-system"/>
                <code value="overdue"/>
                <display value="Overdue"/>
              </coding>
            </valueCodeableConcept>
          </extension>
          <title value="Biennial screening mammogram starting age 40"/>
          <description value="Biennial screening mammogram starting at age 40"/>
          <code>
            <coding>
              <system value="http://loinc.org"/>
              <code value="24606-6"/>
              <display value="MG Breast Screening"/>
            </coding>
          </code>
          <documentation>
            <type value="citation"/>
            <label value="USPSTF"/>
            <display value="Screening for Breast Cancer: US Preventive Services Task Force Recommendation Statement"/>
            <citation value="US Preventive Services Task Force. Screening for Breast Cancer: US Preventive Services Task Force Recommendation Statement. JAMA. Published online April 30, 2024."/>
            <url value="https://www.uspreventiveservicestaskforce.org/uspstf/recommendation/breast-cancer-screening"/>
          </documentation>
          <timingTiming>
            <event value="1985-01-01"/>
            <repeat>
              <boundsPeriod>
                <start value="1985-01-01"/>
              </boundsPeriod>
              <frequency value="1"/>
              <period value="2"/>
              <periodUnit value="a"/>
            </repeat>
          </timingTiming>
          <resource>
            <reference value="ServiceRequest/310"/>
          </resource>
        </action>
      </RequestGroup>
    </resource>
  </entry>
  <entry>
    <fullUrl value="http://cancerscreeningcds.github.io/bcsm-cds/CommunicationRequest/307"/>
    <resource>
      <CommunicationRequest>
        <id value="307"/>
        <text>
          <status value="generated"/><div xmlns="http://www.w3.org/1999/xhtml"><a name="CommunicationRequest_307"> </a><p class="res-header-id"><b>Generated Narrative: CommunicationRequest 307</b></p><a name="307"> </a><a name="hc307"> </a><a name="307-en-US"> </a><p><b>basedOn</b>: <a href="ActivityDefinition-CommunicateSDMContinueScreening.html">Communicate Shared Decision Making to Continue Screening</a></p><p><b>status</b>: option</p><p><b>subject</b>: <a href="Bundle-eve-AgeOver74_yes_eve-LifeExp_yes.html#Patient_b7c6b861-a625-4214-8d94-0620827d7d9d">Jane Doe</a></p><h3>Payloads</h3><table class="grid"><tr><td style="display: none">-</td><td><b>Content[x]</b></td></tr><tr><td style="display: none">*</td><td>Shared decision making to continue screening</td></tr></table><p><b>reasonCode</b>: <span title="Codes:{http://cancerscreeningcds.github.io/bcsm-cds/CodeSystem/screening-observation-code-system ageover74}">Age over 74 years</span></p></div>
        </text>
        <basedOn>
          <reference value="http://cancerscreeningcds.github.io/bcsm-cds/ActivityDefinition/CommunicateSDMContinueScreening"/>
        </basedOn>
        <status value="option"/>
        <subject>
          <reference value="Patient/b7c6b861-a625-4214-8d94-0620827d7d9d"/>
          <display value="Jane Doe"/>
        </subject>
        <payload>
          <contentString value="Shared decision making to continue screening"/>
        </payload>
        <reasonCode>
          <coding>
            <system value="http://cancerscreeningcds.github.io/bcsm-cds/CodeSystem/screening-observation-code-system"/>
            <code value="ageover74"/>
            <display value="Age over 74 years"/>
          </coding>
        </reasonCode>
      </CommunicationRequest>
    </resource>
  </entry>
  <entry>
    <fullUrl value="http://cancerscreeningcds.github.io/bcsm-cds/CommunicationRequest/308"/>
    <resource>
      <CommunicationRequest>
        <id value="308"/>
        <text>
          <status value="generated"/><div xmlns="http://www.w3.org/1999/xhtml"><a name="CommunicationRequest_308"> </a><p class="res-header-id"><b>Generated Narrative: CommunicationRequest 308</b></p><a name="308"> </a><a name="hc308"> </a><a name="308-en-US"> </a><p><b>basedOn</b>: <a href="ActivityDefinition-CommunicateSDMContinueScreening.html">Communicate Shared Decision Making to Continue Screening</a></p><p><b>status</b>: option</p><p><b>subject</b>: <a href="Bundle-eve-AgeOver74_yes_eve-LifeExp_yes.html#Patient_b7c6b861-a625-4214-8d94-0620827d7d9d">Jane Doe</a></p><h3>Payloads</h3><table class="grid"><tr><td style="display: none">-</td><td><b>Content[x]</b></td></tr><tr><td style="display: none">*</td><td>Shared decision making to continue screening</td></tr></table><p><b>reasonCode</b>: <span title="Codes:{http://cancerscreeningcds.github.io/bcsm-cds/CodeSystem/screening-observation-code-system lifeexp}">Reduced life expectancy indicator</span></p></div>
        </text>
        <basedOn>
          <reference value="http://cancerscreeningcds.github.io/bcsm-cds/ActivityDefinition/CommunicateSDMContinueScreening"/>
        </basedOn>
        <status value="option"/>
        <subject>
          <reference value="Patient/b7c6b861-a625-4214-8d94-0620827d7d9d"/>
          <display value="Jane Doe"/>
        </subject>
        <payload>
          <contentString value="Shared decision making to continue screening"/>
        </payload>
        <reasonCode>
          <coding>
            <system value="http://cancerscreeningcds.github.io/bcsm-cds/CodeSystem/screening-observation-code-system"/>
            <code value="lifeexp"/>
            <display value="Reduced life expectancy indicator"/>
          </coding>
        </reasonCode>
      </CommunicationRequest>
    </resource>
  </entry>
  <entry>
    <fullUrl value="http://cancerscreeningcds.github.io/bcsm-cds/ServiceRequest/309"/>
    <resource>
      <ServiceRequest>
        <id value="309"/>
        <text>
          <status value="generated"/><div xmlns="http://www.w3.org/1999/xhtml"><a name="ServiceRequest_309"> </a><p class="res-header-id"><b>Generated Narrative: ServiceRequest 309</b></p><a name="309"> </a><a name="hc309"> </a><a name="309-en-US"> </a><p><b>basedOn</b>: <a href="ActivityDefinition-BreastCancerScreeningServiceRequest.html">Breast Cancer Screening Service Request</a></p><p><b>status</b>: option</p><p><b>intent</b>: Proposal</p><p><b>code</b>: <span title="Codes:{http://loinc.org 24606-6}">MG Breast Screening</span></p><p><b>subject</b>: <a href="Bundle-eve-AgeOver74_yes_eve-LifeExp_yes.html#Patient_b7c6b861-a625-4214-8d94-0620827d7d9d">Jane Doe</a></p><p><b>occurrence</b>: 1985-01-01</p><p><b>reasonCode</b>: <span title="Codes:{http://cancerscreeningcds.github.io/bcsm-cds/CodeSystem/screening-observation-code-system ACSaveragerisk}">ACS average risk</span></p></div>
        </text>
        <basedOn>
          <reference value="http://cancerscreeningcds.github.io/bcsm-cds/ActivityDefinition/BreastCancerScreeningServiceRequest"/>
        </basedOn>
        <status value="option"/>
        <intent value="proposal"/>
        <code>
          <coding>
            <system value="http://loinc.org"/>
            <code value="24606-6"/>
            <display value="MG Breast Screening"/>
          </coding>
        </code>
        <subject>
          <reference value="Patient/b7c6b861-a625-4214-8d94-0620827d7d9d"/>
          <display value="Jane Doe"/>
        </subject>
        <occurrenceDateTime value="1985-01-01"/>
        <reasonCode>
          <coding>
            <system value="http://cancerscreeningcds.github.io/bcsm-cds/CodeSystem/screening-observation-code-system"/>
            <code value="ACSaveragerisk"/>
            <display value="ACS average risk"/>
          </coding>
        </reasonCode>
      </ServiceRequest>
    </resource>
  </entry>
  <entry>
    <fullUrl value="http://cancerscreeningcds.github.io/bcsm-cds/ServiceRequest/310"/>
    <resource>
      <ServiceRequest>
        <id value="310"/>
        <text>
          <status value="generated"/><div xmlns="http://www.w3.org/1999/xhtml"><a name="ServiceRequest_310"> </a><p class="res-header-id"><b>Generated Narrative: ServiceRequest 310</b></p><a name="310"> </a><a name="hc310"> </a><a name="310-en-US"> </a><p><b>basedOn</b>: <a href="ActivityDefinition-BreastCancerScreeningServiceRequest.html">Breast Cancer Screening Service Request</a></p><p><b>status</b>: option</p><p><b>intent</b>: Proposal</p><p><b>code</b>: <span title="Codes:{http://loinc.org 24606-6}">MG Breast Screening</span></p><p><b>subject</b>: <a href="Bundle-eve-AgeOver74_yes_eve-LifeExp_yes.html#Patient_b7c6b861-a625-4214-8d94-0620827d7d9d">Jane Doe</a></p><p><b>occurrence</b>: 1985-01-01</p><p><b>reasonCode</b>: <span title="Codes:{http://cancerscreeningcds.github.io/bcsm-cds/CodeSystem/screening-observation-code-system USPSTFaveragerisk}">USPSTF average risk</span></p></div>
        </text>
        <basedOn>
          <reference value="http://cancerscreeningcds.github.io/bcsm-cds/ActivityDefinition/BreastCancerScreeningServiceRequest"/>
        </basedOn>
        <status value="option"/>
        <intent value="proposal"/>
        <code>
          <coding>
            <system value="http://loinc.org"/>
            <code value="24606-6"/>
            <display value="MG Breast Screening"/>
          </coding>
        </code>
        <subject>
          <reference value="Patient/b7c6b861-a625-4214-8d94-0620827d7d9d"/>
          <display value="Jane Doe"/>
        </subject>
        <occurrenceDateTime value="1985-01-01"/>
        <reasonCode>
          <coding>
            <system value="http://cancerscreeningcds.github.io/bcsm-cds/CodeSystem/screening-observation-code-system"/>
            <code value="USPSTFaveragerisk"/>
            <display value="USPSTF average risk"/>
          </coding>
        </reasonCode>
      </ServiceRequest>
    </resource>
  </entry>
</Bundle>