<?xml version="1.0" encoding="UTF-8"?>

<Bundle xmlns="http://hl7.org/fhir">
  <id value="PrimaryScreeningDecision_inc-AgeAtLeast18_error"/>
  <type value="collection"/>
  <entry>
    <fullUrl value="http://cancerscreeningcds.github.io/bcsm-cds/CarePlan/209"/>
    <resource>
      <CarePlan>
        <id value="209"/>
        <text>
          <status value="generated"/><div xmlns="http://www.w3.org/1999/xhtml"><a name="CarePlan_209"> </a><p class="res-header-id"><b>Generated Narrative: CarePlan 209</b></p><a name="209"> </a><a name="hc209"> </a><a name="209-en-US"> </a><p><b>instantiatesCanonical</b>: <a href="PlanDefinition-PrimaryScreeningDecision.html">Primary Screening Decision</a></p><p><b>status</b>: Draft</p><p><b>intent</b>: Proposal</p><p><b>subject</b>: <a href="Bundle-inc-AgeAtLeast18_error.html#Patient_a54ce384-168d-4a92-8786-18e90ac7ea45">Joanne Smith</a></p><p><b>created</b>: 2024-12-10 00:00:00+0000</p><h3>Activities</h3><table class="grid"><tr><td style="display: none">-</td><td><b>Reference</b></td></tr><tr><td style="display: none">*</td><td><a href="Bundle-PrimaryScreeningDecision_inc-AgeAtLeast18_error.html#RequestGroup_210">Bundle: type = collection</a></td></tr></table></div>
        </text>
        <instantiatesCanonical value="http://cancerscreeningcds.github.io/bcsm-cds/PlanDefinition/PrimaryScreeningDecision"/>
        <status value="draft"/>
        <intent value="proposal"/>
        <subject>
          <reference value="Patient/a54ce384-168d-4a92-8786-18e90ac7ea45"/>
          <display value="Joanne Smith"/>
        </subject>
        <created value="2024-12-10T00:00:00.0Z"/>
        <activity>
          <reference>
            <reference value="RequestGroup/210"/>
          </reference>
        </activity>
      </CarePlan>
    </resource>
  </entry>
  <entry>
    <fullUrl value="http://cancerscreeningcds.github.io/bcsm-cds/RequestGroup/210"/>
    <resource>
      <RequestGroup>
        <id value="210"/>
        <text>
          <status value="extensions"/><div xmlns="http://www.w3.org/1999/xhtml"><a name="RequestGroup_210"> </a><p class="res-header-id"><b>Generated Narrative: RequestGroup 210</b></p><a name="210"> </a><a name="hc210"> </a><a name="210-en-US"> </a><p><b>Messages</b>: <a href="#hc210/contained-1">OperationOutcome</a></p><p><b>instantiatesCanonical</b>: <a href="PlanDefinition-PrimaryScreeningDecision.html">Primary Screening Decision</a></p><p><b>status</b>: Draft</p><p><b>intent</b>: Proposal</p><p><b>subject</b>: <a href="Bundle-inc-AgeAtLeast18_error.html#Patient_a54ce384-168d-4a92-8786-18e90ac7ea45">Joanne Smith</a></p><hr/><blockquote><p class="res-header-id"><b>Generated Narrative: OperationOutcome #contained-1</b></p><a name="210/contained-1"> </a><a name="hc210/contained-1"> </a><a name="210/contained-1-en-US"> </a><table class="grid"><tr><td><b>Severity</b></td><td><b>Location</b></td><td><b>Code</b></td><td><b>Details</b></td><td><b>Diagnostics</b></td></tr><tr><td>Warning</td><td/><td>Processing Failure</td><td/><td>Missing age or birth date</td></tr></table></blockquote></div>
        </text>
        <contained>
          <OperationOutcome>
            <id value="contained-1"/>
            <issue>
              <severity value="warning"/>
              <code value="processing"/>
              <details>
                <coding>
                  <system value="http://example.org/CodeSystem/plan-definition-action-reason-code-system"/>
                  <code value="missingageorbirthdate"/>
                </coding>
              </details>
              <diagnostics value="Missing age or birth date"/>
            </issue>
          </OperationOutcome>
        </contained>
        <extension url="http://hl7.org/fhir/StructureDefinition/cqf-messages">
          <valueReference>
            <reference value="#contained-1"/>
          </valueReference>
        </extension>
        <instantiatesCanonical value="http://cancerscreeningcds.github.io/bcsm-cds/PlanDefinition/PrimaryScreeningDecision"/>
        <status value="draft"/>
        <intent value="proposal"/>
        <subject>
          <reference value="Patient/a54ce384-168d-4a92-8786-18e90ac7ea45"/>
          <display value="Joanne Smith"/>
        </subject>
      </RequestGroup>
    </resource>
  </entry>
</Bundle>