{
  "resourceType" : "Bundle",
  "id" : "ScreeningEligible_eve-breastfindings_yes_act-dxtesting",
  "type" : "collection",
  "entry" : [{
    "fullUrl" : "http://cancerscreeningcds.github.io/bcsm-cds/CarePlan/492",
    "resource" : {
      "resourceType" : "CarePlan",
      "id" : "492",
      "text" : {
        "status" : "generated",
        "div" : "<div xmlns=\"http://www.w3.org/1999/xhtml\"><a name=\"CarePlan_492\"> </a><p class=\"res-header-id\"><b>Generated Narrative: CarePlan 492</b></p><a name=\"492\"> </a><a name=\"hc492\"> </a><a name=\"492-en-US\"> </a><p><b>instantiatesCanonical</b>: <a href=\"PlanDefinition-flow-ScreeningEligible.html\">Screening Eligible</a></p><p><b>status</b>: Draft</p><p><b>intent</b>: Proposal</p><p><b>subject</b>: <a href=\"Bundle-eve-breastfindings_yes_act-dxtesting.html#Patient_0f8a88fc-4020-466d-90b8-db5ff1f9dc54\">Joanne Smith</a></p><p><b>created</b>: 2024-12-10 00:00:00+0000</p><h3>Activities</h3><table class=\"grid\"><tr><td style=\"display: none\">-</td><td><b>Reference</b></td></tr><tr><td style=\"display: none\">*</td><td><a href=\"Bundle-ScreeningEligible_eve-breastfindings_yes_act-dxtesting.html#RequestGroup_493\">Bundle: type = collection</a></td></tr></table></div>"
      },
      "instantiatesCanonical" : ["http://cancerscreeningcds.github.io/bcsm-cds/PlanDefinition/flow-ScreeningEligible"],
      "status" : "draft",
      "intent" : "proposal",
      "subject" : {
        "reference" : "Patient/0f8a88fc-4020-466d-90b8-db5ff1f9dc54",
        "display" : "Joanne Smith"
      },
      "created" : "2024-12-10T00:00:00.0Z",
      "activity" : [{
        "reference" : {
          "reference" : "RequestGroup/493"
        }
      }]
    }
  },
  {
    "fullUrl" : "http://cancerscreeningcds.github.io/bcsm-cds/RequestGroup/493",
    "resource" : {
      "resourceType" : "RequestGroup",
      "id" : "493",
      "text" : {
        "status" : "generated",
        "div" : "<div xmlns=\"http://www.w3.org/1999/xhtml\"><a name=\"RequestGroup_493\"> </a><p class=\"res-header-id\"><b>Generated Narrative: RequestGroup 493</b></p><a name=\"493\"> </a><a name=\"hc493\"> </a><a name=\"493-en-US\"> </a><p><b>instantiatesCanonical</b>: <a href=\"PlanDefinition-flow-ScreeningEligible.html\">Screening Eligible</a></p><p><b>status</b>: Draft</p><p><b>intent</b>: Proposal</p><p><b>subject</b>: <a href=\"Bundle-eve-breastfindings_yes_act-dxtesting.html#Patient_0f8a88fc-4020-466d-90b8-db5ff1f9dc54\">Joanne Smith</a></p><blockquote><p><b>action</b></p><blockquote><p><b>id</b></p>NotEligibleBreastSymptomsOrFindings</blockquote><p><b>title</b>: Not eligible for screening</p><p><b>description</b>: This patient is not eligible for screening.\n\nNew breast symptoms or exam findings, or chronic symptoms or findings which have progressively worsened, should undergo diagnostic testing rather than routine screening.</p><p><b>code</b>: <span title=\"Codes:{http://cancerscreeningcds.github.io/bcsm-cds/CodeSystem/plan-definition-action-code-system noteligible}\">Not eligible for screening</span></p><h3>Documentations</h3><table class=\"grid\"><tr><td style=\"display: none\">-</td><td><b>Type</b></td><td><b>Label</b></td><td><b>Display</b></td><td><b>Citation</b></td><td><b>Url</b></td></tr><tr><td style=\"display: none\">*</td><td>Citation</td><td>USPSTF</td><td>Screening for Breast Cancer: US Preventive Services Task Force Recommendation Statement</td><td><div><p>US Preventive Services Task Force. Screening for Breast Cancer: US Preventive Services Task Force Recommendation Statement. JAMA. Published online April 30, 2024.</p>\n</div></td><td><a href=\"https://www.uspreventiveservicestaskforce.org/uspstf/recommendation/breast-cancer-screening\">https://www.uspreventiveservicestaskforce.org/uspstf/recommendation/breast-cancer-screening</a></td></tr><tr><td style=\"display: none\">*</td><td>Derived From</td><td>Screening Eligible</td><td>Individuals who have certain signs or symptoms concerning for breast cancer or other breast diseases are excluded from routine screening pathways and should have diagnostic testing performed.</td><td> </td><td> </td></tr></table><p><b>resource</b>: <a href=\"Bundle-ScreeningEligible_eve-breastfindings_yes_act-dxtesting.html#CommunicationRequest_495\">Bundle: type = collection</a></p></blockquote></div>"
      },
      "instantiatesCanonical" : ["http://cancerscreeningcds.github.io/bcsm-cds/PlanDefinition/flow-ScreeningEligible"],
      "status" : "draft",
      "intent" : "proposal",
      "subject" : {
        "reference" : "Patient/0f8a88fc-4020-466d-90b8-db5ff1f9dc54",
        "display" : "Joanne Smith"
      },
      "action" : [{
        "id" : "NotEligibleBreastSymptomsOrFindings",
        "title" : "Not eligible for screening",
        "description" : "This patient is not eligible for screening.\n\nNew breast symptoms or exam findings, or chronic symptoms or findings which have progressively worsened, should undergo diagnostic testing rather than routine screening.",
        "code" : [{
          "coding" : [{
            "system" : "http://cancerscreeningcds.github.io/bcsm-cds/CodeSystem/plan-definition-action-code-system",
            "code" : "noteligible",
            "display" : "Not eligible for screening"
          }]
        }],
        "documentation" : [{
          "type" : "citation",
          "label" : "USPSTF",
          "display" : "Screening for Breast Cancer: US Preventive Services Task Force Recommendation Statement",
          "citation" : "US Preventive Services Task Force. Screening for Breast Cancer: US Preventive Services Task Force Recommendation Statement. JAMA. Published online April 30, 2024.",
          "url" : "https://www.uspreventiveservicestaskforce.org/uspstf/recommendation/breast-cancer-screening"
        },
        {
          "type" : "derived-from",
          "label" : "Screening Eligible",
          "display" : "Individuals who have certain signs or symptoms concerning for breast cancer or other breast diseases are excluded from routine screening pathways and should have diagnostic testing performed."
        }],
        "resource" : {
          "reference" : "CommunicationRequest/495"
        }
      }]
    }
  },
  {
    "fullUrl" : "http://cancerscreeningcds.github.io/bcsm-cds/CommunicationRequest/495",
    "resource" : {
      "resourceType" : "CommunicationRequest",
      "id" : "495",
      "text" : {
        "status" : "generated",
        "div" : "<div xmlns=\"http://www.w3.org/1999/xhtml\"><a name=\"CommunicationRequest_495\"> </a><p class=\"res-header-id\"><b>Generated Narrative: CommunicationRequest 495</b></p><a name=\"495\"> </a><a name=\"hc495\"> </a><a name=\"495-en-US\"> </a><p><b>basedOn</b>: <a href=\"ActivityDefinition-CommunicateNotEligible.html\">Communicate Not Eligible</a></p><p><b>status</b>: option</p><p><b>subject</b>: <a href=\"Bundle-eve-breastfindings_yes_act-dxtesting.html#Patient_0f8a88fc-4020-466d-90b8-db5ff1f9dc54\">Joanne Smith</a></p><h3>Payloads</h3><table class=\"grid\"><tr><td style=\"display: none\">-</td><td><b>Content[x]</b></td></tr><tr><td style=\"display: none\">*</td><td>Not eligible for screening</td></tr></table><p><b>reasonCode</b>: <span title=\"Codes:{http://cancerscreeningcds.github.io/bcsm-cds/CodeSystem/screening-observation-code-system breastsymptomsorfindings}\">New or worsening breast symptoms or findings</span></p></div>"
      },
      "basedOn" : [{
        "reference" : "http://cancerscreeningcds.github.io/bcsm-cds/ActivityDefinition/CommunicateNotEligible"
      }],
      "status" : "option",
      "subject" : {
        "reference" : "Patient/0f8a88fc-4020-466d-90b8-db5ff1f9dc54",
        "display" : "Joanne Smith"
      },
      "payload" : [{
        "contentString" : "Not eligible for screening"
      }],
      "reasonCode" : [{
        "coding" : [{
          "system" : "http://cancerscreeningcds.github.io/bcsm-cds/CodeSystem/screening-observation-code-system",
          "code" : "breastsymptomsorfindings",
          "display" : "New or worsening breast symptoms or findings"
        }]
      }]
    }
  }]
}