{
  "resourceType" : "Bundle",
  "id" : "PrimaryScreeningDecision_inc-AgeAtLeast18_error",
  "type" : "collection",
  "entry" : [{
    "fullUrl" : "http://cancerscreeningcds.github.io/bcsm-cds/CarePlan/209",
    "resource" : {
      "resourceType" : "CarePlan",
      "id" : "209",
      "text" : {
        "status" : "generated",
        "div" : "<div xmlns=\"http://www.w3.org/1999/xhtml\"><a name=\"CarePlan_209\"> </a><p class=\"res-header-id\"><b>Generated Narrative: CarePlan 209</b></p><a name=\"209\"> </a><a name=\"hc209\"> </a><a name=\"209-en-US\"> </a><p><b>instantiatesCanonical</b>: <a href=\"PlanDefinition-PrimaryScreeningDecision.html\">Primary Screening Decision</a></p><p><b>status</b>: Draft</p><p><b>intent</b>: Proposal</p><p><b>subject</b>: <a href=\"Bundle-inc-AgeAtLeast18_error.html#Patient_a54ce384-168d-4a92-8786-18e90ac7ea45\">Joanne Smith</a></p><p><b>created</b>: 2024-12-10 00:00:00+0000</p><h3>Activities</h3><table class=\"grid\"><tr><td style=\"display: none\">-</td><td><b>Reference</b></td></tr><tr><td style=\"display: none\">*</td><td><a href=\"Bundle-PrimaryScreeningDecision_inc-AgeAtLeast18_error.html#RequestGroup_210\">Bundle: type = collection</a></td></tr></table></div>"
      },
      "instantiatesCanonical" : ["http://cancerscreeningcds.github.io/bcsm-cds/PlanDefinition/PrimaryScreeningDecision"],
      "status" : "draft",
      "intent" : "proposal",
      "subject" : {
        "reference" : "Patient/a54ce384-168d-4a92-8786-18e90ac7ea45",
        "display" : "Joanne Smith"
      },
      "created" : "2024-12-10T00:00:00.0Z",
      "activity" : [{
        "reference" : {
          "reference" : "RequestGroup/210"
        }
      }]
    }
  },
  {
    "fullUrl" : "http://cancerscreeningcds.github.io/bcsm-cds/RequestGroup/210",
    "resource" : {
      "resourceType" : "RequestGroup",
      "id" : "210",
      "text" : {
        "status" : "extensions",
        "div" : "<div xmlns=\"http://www.w3.org/1999/xhtml\"><a name=\"RequestGroup_210\"> </a><p class=\"res-header-id\"><b>Generated Narrative: RequestGroup 210</b></p><a name=\"210\"> </a><a name=\"hc210\"> </a><a name=\"210-en-US\"> </a><p><b>Messages</b>: <a href=\"#hc210/contained-1\">OperationOutcome</a></p><p><b>instantiatesCanonical</b>: <a href=\"PlanDefinition-PrimaryScreeningDecision.html\">Primary Screening Decision</a></p><p><b>status</b>: Draft</p><p><b>intent</b>: Proposal</p><p><b>subject</b>: <a href=\"Bundle-inc-AgeAtLeast18_error.html#Patient_a54ce384-168d-4a92-8786-18e90ac7ea45\">Joanne Smith</a></p><hr/><blockquote><p class=\"res-header-id\"><b>Generated Narrative: OperationOutcome #contained-1</b></p><a name=\"210/contained-1\"> </a><a name=\"hc210/contained-1\"> </a><a name=\"210/contained-1-en-US\"> </a><table class=\"grid\"><tr><td><b>Severity</b></td><td><b>Location</b></td><td><b>Code</b></td><td><b>Details</b></td><td><b>Diagnostics</b></td></tr><tr><td>Warning</td><td/><td>Processing Failure</td><td/><td>Missing age or birth date</td></tr></table></blockquote></div>"
      },
      "contained" : [{
        "resourceType" : "OperationOutcome",
        "id" : "contained-1",
        "issue" : [{
          "severity" : "warning",
          "code" : "processing",
          "details" : {
            "coding" : [{
              "system" : "http://example.org/CodeSystem/plan-definition-action-reason-code-system",
              "code" : "missingageorbirthdate"
            }]
          },
          "diagnostics" : "Missing age or birth date"
        }]
      }],
      "extension" : [{
        "url" : "http://hl7.org/fhir/StructureDefinition/cqf-messages",
        "valueReference" : {
          "reference" : "#contained-1"
        }
      }],
      "instantiatesCanonical" : ["http://cancerscreeningcds.github.io/bcsm-cds/PlanDefinition/PrimaryScreeningDecision"],
      "status" : "draft",
      "intent" : "proposal",
      "subject" : {
        "reference" : "Patient/a54ce384-168d-4a92-8786-18e90ac7ea45",
        "display" : "Joanne Smith"
      }
    }
  }]
}