<?xml version="1.0" encoding="UTF-8"?>

<Bundle xmlns="http://hl7.org/fhir">
  <id value="ScreeningEligible_inc-AgeAtLeast18_yes"/>
  <type value="collection"/>
  <entry>
    <fullUrl value="http://cancerscreeningcds.github.io/bcsm-cds/CarePlan/522"/>
    <resource>
      <CarePlan>
        <id value="522"/>
        <text>
          <status value="generated"/><div xmlns="http://www.w3.org/1999/xhtml"><a name="CarePlan_522"> </a><p class="res-header-id"><b>Generated Narrative: CarePlan 522</b></p><a name="522"> </a><a name="hc522"> </a><a name="522-en-US"> </a><p><b>instantiatesCanonical</b>: <a href="PlanDefinition-flow-ScreeningEligible.html">Screening Eligible</a></p><p><b>status</b>: Draft</p><p><b>intent</b>: Proposal</p><p><b>subject</b>: <a href="Bundle-inc-AgeAtLeast18_yes.html#Patient_2f90d9c3-fcee-4a20-b072-56c806e7288b">Joanne Smith</a></p><p><b>created</b>: 2024-12-10 00:00:00+0000</p><h3>Activities</h3><table class="grid"><tr><td style="display: none">-</td><td><b>Reference</b></td></tr><tr><td style="display: none">*</td><td><a href="Bundle-ScreeningEligible_inc-AgeAtLeast18_yes.html#RequestGroup_523">Bundle: type = collection</a></td></tr></table></div>
        </text>
        <instantiatesCanonical value="http://cancerscreeningcds.github.io/bcsm-cds/PlanDefinition/flow-ScreeningEligible"/>
        <status value="draft"/>
        <intent value="proposal"/>
        <subject>
          <reference value="Patient/2f90d9c3-fcee-4a20-b072-56c806e7288b"/>
          <display value="Joanne Smith"/>
        </subject>
        <created value="2024-12-10T00:00:00.0Z"/>
        <activity>
          <reference>
            <reference value="RequestGroup/523"/>
          </reference>
        </activity>
      </CarePlan>
    </resource>
  </entry>
  <entry>
    <fullUrl value="http://cancerscreeningcds.github.io/bcsm-cds/RequestGroup/523"/>
    <resource>
      <RequestGroup>
        <id value="523"/>
        <text>
          <status value="generated"/><div xmlns="http://www.w3.org/1999/xhtml"><a name="RequestGroup_523"> </a><p class="res-header-id"><b>Generated Narrative: RequestGroup 523</b></p><a name="523"> </a><a name="hc523"> </a><a name="523-en-US"> </a><p><b>instantiatesCanonical</b>: <a href="PlanDefinition-flow-ScreeningEligible.html">Screening Eligible</a></p><p><b>status</b>: Draft</p><p><b>intent</b>: Proposal</p><p><b>subject</b>: <a href="Bundle-inc-AgeAtLeast18_yes.html#Patient_2f90d9c3-fcee-4a20-b072-56c806e7288b">Joanne Smith</a></p><blockquote><p><b>action</b></p><blockquote><p><b>id</b></p>IsScreeningEligible</blockquote><p><b>title</b>: Screening eligible</p><p><b>description</b>: Patient is eligible for screening</p><p><b>code</b>: <span title="Codes:{http://cancerscreeningcds.github.io/bcsm-cds/CodeSystem/plan-definition-action-code-system eligible}">Eligible for screening</span></p><h3>Documentations</h3><table class="grid"><tr><td style="display: none">-</td><td><b>Type</b></td><td><b>Label</b></td><td><b>Display</b></td><td><b>Citation</b></td><td><b>Url</b></td></tr><tr><td style="display: none">*</td><td>Citation</td><td>USPSTF</td><td>Screening for Breast Cancer: US Preventive Services Task Force Recommendation Statement</td><td><div><p>US Preventive Services Task Force. Screening for Breast Cancer: US Preventive Services Task Force Recommendation Statement. JAMA. Published online April 30, 2024.</p>
</div></td><td><a href="https://www.uspreventiveservicestaskforce.org/uspstf/recommendation/breast-cancer-screening">https://www.uspreventiveservicestaskforce.org/uspstf/recommendation/breast-cancer-screening</a></td></tr><tr><td style="display: none">*</td><td>Derived From</td><td>Screening Eligible</td><td>Individuals who have certain signs or symptoms concerning for breast cancer or other breast diseases are excluded from routine screening pathways and should have diagnostic testing performed.</td><td> </td><td> </td></tr></table><p><b>resource</b>: <a href="Bundle-ScreeningEligible_inc-AgeAtLeast18_yes.html#CommunicationRequest_525">Bundle: type = collection</a></p></blockquote></div>
        </text>
        <instantiatesCanonical value="http://cancerscreeningcds.github.io/bcsm-cds/PlanDefinition/flow-ScreeningEligible"/>
        <status value="draft"/>
        <intent value="proposal"/>
        <subject>
          <reference value="Patient/2f90d9c3-fcee-4a20-b072-56c806e7288b"/>
          <display value="Joanne Smith"/>
        </subject>
        <action id="IsScreeningEligible">
          <title value="Screening eligible"/>
          <description value="Patient is eligible for screening"/>
          <code>
            <coding>
              <system value="http://cancerscreeningcds.github.io/bcsm-cds/CodeSystem/plan-definition-action-code-system"/>
              <code value="eligible"/>
              <display value="Eligible for screening"/>
            </coding>
          </code>
          <documentation>
            <type value="citation"/>
            <label value="USPSTF"/>
            <display value="Screening for Breast Cancer: US Preventive Services Task Force Recommendation Statement"/>
            <citation value="US Preventive Services Task Force. Screening for Breast Cancer: US Preventive Services Task Force Recommendation Statement. JAMA. Published online April 30, 2024."/>
            <url value="https://www.uspreventiveservicestaskforce.org/uspstf/recommendation/breast-cancer-screening"/>
          </documentation>
          <documentation>
            <type value="derived-from"/>
            <label value="Screening Eligible"/>
            <display value="Individuals who have certain signs or symptoms concerning for breast cancer or other breast diseases are excluded from routine screening pathways and should have diagnostic testing performed."/>
          </documentation>
          <resource>
            <reference value="CommunicationRequest/525"/>
          </resource>
        </action>
      </RequestGroup>
    </resource>
  </entry>
  <entry>
    <fullUrl value="http://cancerscreeningcds.github.io/bcsm-cds/CommunicationRequest/525"/>
    <resource>
      <CommunicationRequest>
        <id value="525"/>
        <text>
          <status value="generated"/><div xmlns="http://www.w3.org/1999/xhtml"><a name="CommunicationRequest_525"> </a><p class="res-header-id"><b>Generated Narrative: CommunicationRequest 525</b></p><a name="525"> </a><a name="hc525"> </a><a name="525-en-US"> </a><p><b>basedOn</b>: <a href="ActivityDefinition-CommunicateEligible.html">Communicate Eligible</a></p><p><b>status</b>: option</p><p><b>subject</b>: <a href="Bundle-inc-AgeAtLeast18_yes.html#Patient_2f90d9c3-fcee-4a20-b072-56c806e7288b">Joanne Smith</a></p><h3>Payloads</h3><table class="grid"><tr><td style="display: none">-</td><td><b>Content[x]</b></td></tr><tr><td style="display: none">*</td><td>Eligible for screening</td></tr></table></div>
        </text>
        <basedOn>
          <reference value="http://cancerscreeningcds.github.io/bcsm-cds/ActivityDefinition/CommunicateEligible"/>
        </basedOn>
        <status value="option"/>
        <subject>
          <reference value="Patient/2f90d9c3-fcee-4a20-b072-56c806e7288b"/>
          <display value="Joanne Smith"/>
        </subject>
        <payload>
          <contentString value="Eligible for screening"/>
        </payload>
      </CommunicationRequest>
    </resource>
  </entry>
</Bundle>