{
  "resourceType" : "Bundle",
  "id" : "SpecialPopulations_eve-firstdeggenetic_eve-acs_act-firstdeggeneticmammo-firstdeggeneticmri",
  "type" : "collection",
  "entry" : [{
    "fullUrl" : "http://cancerscreeningcds.github.io/bcsm-cds/CarePlan/545",
    "resource" : {
      "resourceType" : "CarePlan",
      "id" : "545",
      "text" : {
        "status" : "generated",
        "div" : "<div xmlns=\"http://www.w3.org/1999/xhtml\"><a name=\"CarePlan_545\"> </a><p class=\"res-header-id\"><b>Generated Narrative: CarePlan 545</b></p><a name=\"545\"> </a><a name=\"hc545\"> </a><a name=\"545-en-US\"> </a><p><b>instantiatesCanonical</b>: <a href=\"PlanDefinition-flow-SpecialPopulations.html\">Special Populations</a></p><p><b>status</b>: Draft</p><p><b>intent</b>: Proposal</p><p><b>subject</b>: <a href=\"Bundle-eve-Age45to54_act-acsavgrecs45_act-uspstfavgrecs.html#Patient_defaultPatient\">Jane Doe</a></p><p><b>created</b>: 2024-12-10 00:00:00+0000</p><h3>Activities</h3><table class=\"grid\"><tr><td style=\"display: none\">-</td><td><b>Reference</b></td></tr><tr><td style=\"display: none\">*</td><td><a href=\"Bundle-SpecialPopulations_eve-firstdeggenetic_eve-acs_act-firstdeggeneticmammo-firstdeggeneticmri.html#RequestGroup_546\">Bundle: type = collection</a></td></tr></table></div>"
      },
      "instantiatesCanonical" : ["http://cancerscreeningcds.github.io/bcsm-cds/PlanDefinition/flow-SpecialPopulations"],
      "status" : "draft",
      "intent" : "proposal",
      "subject" : {
        "reference" : "Patient/defaultPatient",
        "display" : "Jane Doe"
      },
      "created" : "2024-12-10T00:00:00.0Z",
      "activity" : [{
        "reference" : {
          "reference" : "RequestGroup/546"
        }
      }]
    }
  },
  {
    "fullUrl" : "http://cancerscreeningcds.github.io/bcsm-cds/RequestGroup/546",
    "resource" : {
      "resourceType" : "RequestGroup",
      "id" : "546",
      "text" : {
        "status" : "extensions",
        "div" : "<div xmlns=\"http://www.w3.org/1999/xhtml\"><a name=\"RequestGroup_546\"> </a><p class=\"res-header-id\"><b>Generated Narrative: RequestGroup 546</b></p><a name=\"546\"> </a><a name=\"hc546\"> </a><a name=\"546-en-US\"> </a><p><b>instantiatesCanonical</b>: <a href=\"PlanDefinition-flow-SpecialPopulations.html\">Special Populations</a></p><p><b>status</b>: Draft</p><p><b>intent</b>: Proposal</p><p><b>subject</b>: <a href=\"Bundle-eve-Age45to54_act-acsavgrecs45_act-uspstfavgrecs.html#Patient_defaultPatient\">Jane Doe</a></p><blockquote><p><b>action</b></p><blockquote><p><b>id</b></p>ACSFirstDegGeneticMammo</blockquote><p><b>Recommendation Flag Extension</b>: <span title=\"Codes:{http://cancerscreeningcds.github.io/bcsm-cds/CodeSystem/recommendation-flag-code-system overdue}\">Overdue</span></p><p><b>title</b>: Annual screening mammo starting age 30</p><p><b>description</b>: An annual screening mammogram starting at age 30 is recommended.\n\nWomen who are at higher than average risk for breast cancer based on certain risk factors should get a mammogram every year, typically starting at age 30.</p><p><b>code</b>: <span title=\"Codes:{http://loinc.org 24606-6}\">MG Breast Screening</span></p><h3>Documentations</h3><table class=\"grid\"><tr><td style=\"display: none\">-</td><td><b>Type</b></td><td><b>Label</b></td><td><b>Display</b></td><td><b>Url</b></td></tr><tr><td style=\"display: none\">*</td><td>Citation</td><td>ACS</td><td>American Cancer Society Recommendations for the Early Detection of Breast Cancer</td><td><a href=\"https://www.cancer.org/cancer/types/breast-cancer/screening-tests-and-early-detection/american-cancer-society-recommendations-for-the-early-detection-of-breast-cancer.html\">https://www.cancer.org/cancer/types/breast-cancer/screening-tests-and-early-detection/american-cancer-society-recommendations-for-the-early-detection-of-breast-cancer.html</a></td></tr></table><p><b>timing</b>: Events: 2011-01-01 , Once per 1 year</p><p><b>resource</b>: <a href=\"Bundle-SpecialPopulations_eve-firstdeggenetic_eve-acs_act-firstdeggeneticmammo-firstdeggeneticmri.html#ServiceRequest_547\">Bundle: type = collection</a></p></blockquote><blockquote><p><b>action</b></p><blockquote><p><b>id</b></p>ACSFirstDegGeneticMri</blockquote><p><b>Recommendation Flag Extension</b>: <span title=\"Codes:{http://cancerscreeningcds.github.io/bcsm-cds/CodeSystem/recommendation-flag-code-system overdue}\">Overdue</span></p><p><b>title</b>: Annual screening MRI starting age 30</p><p><b>description</b>: An annual screening MRI starting at age 30 is recommended.\n\nWomen who are at higher than average risk for breast cancer based on certain risk factors should get a breast MRI every year, typically starting at age 30.</p><p><b>code</b>: <span title=\"Codes:{http://loinc.org 30794-2}\">MR Breast</span></p><h3>Documentations</h3><table class=\"grid\"><tr><td style=\"display: none\">-</td><td><b>Type</b></td><td><b>Label</b></td><td><b>Display</b></td><td><b>Citation</b></td><td><b>Url</b></td></tr><tr><td style=\"display: none\">*</td><td>Citation</td><td>ACS</td><td>American Cancer Society Guidelines for Breast Screening with MRI as an Adjunct to Mammography</td><td><div><p>Oeffinger KC, Fontham ETH, Etzioni R, et al. Breast Cancer Screening for Women at Average Risk: 2015 Guideline Update From the American Cancer Society. JAMA. 2015;314(15):1599–1614.</p>\n</div></td><td><a href=\"https://acsjournals.onlinelibrary.wiley.com/doi/full/10.3322/canjclin.57.2.75\">https://acsjournals.onlinelibrary.wiley.com/doi/full/10.3322/canjclin.57.2.75</a></td></tr></table><p><b>timing</b>: Events: 2011-01-01 , Once per 1 year</p><p><b>resource</b>: <a href=\"Bundle-SpecialPopulations_eve-firstdeggenetic_eve-acs_act-firstdeggeneticmammo-firstdeggeneticmri.html#ServiceRequest_548\">Bundle: type = collection</a></p></blockquote><blockquote><p><b>action</b></p><blockquote><p><b>id</b></p>USPSTFRecommendation</blockquote><p><b>Recommendation Flag Extension</b>: <span title=\"Codes:{http://cancerscreeningcds.github.io/bcsm-cds/CodeSystem/recommendation-flag-code-system overdue}\">Overdue</span></p><p><b>title</b>: Biennial screening mammo starting age 40</p><p><b>description</b>: Biennial screening mammogram starting at age 40</p><p><b>code</b>: <span title=\"Codes:{http://loinc.org 24606-6}\">MG Breast Screening</span></p><h3>Documentations</h3><table class=\"grid\"><tr><td style=\"display: none\">-</td><td><b>Type</b></td><td><b>Label</b></td><td><b>Display</b></td><td><b>Citation</b></td><td><b>Url</b></td></tr><tr><td style=\"display: none\">*</td><td>Citation</td><td>USPSTF</td><td>Screening for Breast Cancer: US Preventive Services Task Force Recommendation Statement</td><td><div><p>US Preventive Services Task Force. Screening for Breast Cancer: US Preventive Services Task Force Recommendation Statement. JAMA. Published online April 30, 2024.</p>\n</div></td><td><a href=\"https://www.uspreventiveservicestaskforce.org/uspstf/recommendation/breast-cancer-screening\">https://www.uspreventiveservicestaskforce.org/uspstf/recommendation/breast-cancer-screening</a></td></tr></table><p><b>timing</b>: Events: 2021-01-01 , Once per 2 years</p><p><b>resource</b>: <a href=\"Bundle-SpecialPopulations_eve-firstdeggenetic_eve-acs_act-firstdeggeneticmammo-firstdeggeneticmri.html#ServiceRequest_549\">Bundle: type = collection</a></p></blockquote></div>"
      },
      "instantiatesCanonical" : ["http://cancerscreeningcds.github.io/bcsm-cds/PlanDefinition/flow-SpecialPopulations"],
      "status" : "draft",
      "intent" : "proposal",
      "subject" : {
        "reference" : "Patient/defaultPatient",
        "display" : "Jane Doe"
      },
      "action" : [{
        "id" : "ACSFirstDegGeneticMammo",
        "extension" : [{
          "url" : "http://cancerscreeningcds.github.io/bcsm-cds/StructureDefinition/csm-recommendation-flag",
          "valueCodeableConcept" : {
            "coding" : [{
              "system" : "http://cancerscreeningcds.github.io/bcsm-cds/CodeSystem/recommendation-flag-code-system",
              "code" : "overdue",
              "display" : "Overdue"
            }]
          }
        }],
        "title" : "Annual screening mammo starting age 30",
        "description" : "An annual screening mammogram starting at age 30 is recommended.\n\nWomen who are at higher than average risk for breast cancer based on certain risk factors should get a mammogram every year, typically starting at age 30.",
        "code" : [{
          "coding" : [{
            "system" : "http://loinc.org",
            "code" : "24606-6",
            "display" : "MG Breast Screening"
          }]
        }],
        "documentation" : [{
          "type" : "citation",
          "label" : "ACS",
          "display" : "American Cancer Society Recommendations for the Early Detection of Breast Cancer",
          "url" : "https://www.cancer.org/cancer/types/breast-cancer/screening-tests-and-early-detection/american-cancer-society-recommendations-for-the-early-detection-of-breast-cancer.html"
        }],
        "timingTiming" : {
          "event" : ["2011-01-01"],
          "repeat" : {
            "boundsPeriod" : {
              "start" : "2011-01-01"
            },
            "frequency" : 1,
            "period" : 1,
            "periodUnit" : "a"
          }
        },
        "resource" : {
          "reference" : "ServiceRequest/547"
        }
      },
      {
        "id" : "ACSFirstDegGeneticMri",
        "extension" : [{
          "url" : "http://cancerscreeningcds.github.io/bcsm-cds/StructureDefinition/csm-recommendation-flag",
          "valueCodeableConcept" : {
            "coding" : [{
              "system" : "http://cancerscreeningcds.github.io/bcsm-cds/CodeSystem/recommendation-flag-code-system",
              "code" : "overdue",
              "display" : "Overdue"
            }]
          }
        }],
        "title" : "Annual screening MRI starting age 30",
        "description" : "An annual screening MRI starting at age 30 is recommended.\n\nWomen who are at higher than average risk for breast cancer based on certain risk factors should get a breast MRI every year, typically starting at age 30.",
        "code" : [{
          "coding" : [{
            "system" : "http://loinc.org",
            "code" : "30794-2",
            "display" : "MR Breast"
          }]
        }],
        "documentation" : [{
          "type" : "citation",
          "label" : "ACS",
          "display" : "American Cancer Society Guidelines for Breast Screening with MRI as an Adjunct to Mammography",
          "citation" : "Oeffinger KC, Fontham ETH, Etzioni R, et al. Breast Cancer Screening for Women at Average Risk: 2015 Guideline Update From the American Cancer Society. JAMA. 2015;314(15):1599–1614.",
          "url" : "https://acsjournals.onlinelibrary.wiley.com/doi/full/10.3322/canjclin.57.2.75"
        }],
        "timingTiming" : {
          "event" : ["2011-01-01"],
          "repeat" : {
            "boundsPeriod" : {
              "start" : "2011-01-01"
            },
            "frequency" : 1,
            "period" : 1,
            "periodUnit" : "a"
          }
        },
        "resource" : {
          "reference" : "ServiceRequest/548"
        }
      },
      {
        "id" : "USPSTFRecommendation",
        "extension" : [{
          "url" : "http://cancerscreeningcds.github.io/bcsm-cds/StructureDefinition/csm-recommendation-flag",
          "valueCodeableConcept" : {
            "coding" : [{
              "system" : "http://cancerscreeningcds.github.io/bcsm-cds/CodeSystem/recommendation-flag-code-system",
              "code" : "overdue",
              "display" : "Overdue"
            }]
          }
        }],
        "title" : "Biennial screening mammo starting age 40",
        "description" : "Biennial screening mammogram starting at age 40",
        "code" : [{
          "coding" : [{
            "system" : "http://loinc.org",
            "code" : "24606-6",
            "display" : "MG Breast Screening"
          }]
        }],
        "documentation" : [{
          "type" : "citation",
          "label" : "USPSTF",
          "display" : "Screening for Breast Cancer: US Preventive Services Task Force Recommendation Statement",
          "citation" : "US Preventive Services Task Force. Screening for Breast Cancer: US Preventive Services Task Force Recommendation Statement. JAMA. Published online April 30, 2024.",
          "url" : "https://www.uspreventiveservicestaskforce.org/uspstf/recommendation/breast-cancer-screening"
        }],
        "timingTiming" : {
          "event" : ["2021-01-01"],
          "repeat" : {
            "boundsPeriod" : {
              "start" : "2021-01-01"
            },
            "frequency" : 1,
            "period" : 2,
            "periodUnit" : "a"
          }
        },
        "resource" : {
          "reference" : "ServiceRequest/549"
        }
      }]
    }
  },
  {
    "fullUrl" : "http://cancerscreeningcds.github.io/bcsm-cds/ServiceRequest/547",
    "resource" : {
      "resourceType" : "ServiceRequest",
      "id" : "547",
      "text" : {
        "status" : "generated",
        "div" : "<div xmlns=\"http://www.w3.org/1999/xhtml\"><a name=\"ServiceRequest_547\"> </a><p class=\"res-header-id\"><b>Generated Narrative: ServiceRequest 547</b></p><a name=\"547\"> </a><a name=\"hc547\"> </a><a name=\"547-en-US\"> </a><p><b>basedOn</b>: <a href=\"ActivityDefinition-BreastCancerScreeningServiceRequest.html\">Breast Cancer Screening Service Request</a></p><p><b>status</b>: option</p><p><b>intent</b>: Proposal</p><p><b>code</b>: <span title=\"Codes:{http://loinc.org 24606-6}\">MG Breast Screening</span></p><p><b>subject</b>: <a href=\"Bundle-eve-Age45to54_act-acsavgrecs45_act-uspstfavgrecs.html#Patient_defaultPatient\">Jane Doe</a></p><p><b>occurrence</b>: 2011-01-01</p><p><b>reasonCode</b>: <span title=\"Codes:{http://cancerscreeningcds.github.io/bcsm-cds/CodeSystem/screening-observation-code-system firstdeggenetic}\">First degree relative with genetic marker or syndrome</span></p></div>"
      },
      "basedOn" : [{
        "reference" : "http://cancerscreeningcds.github.io/bcsm-cds/ActivityDefinition/BreastCancerScreeningServiceRequest"
      }],
      "status" : "option",
      "intent" : "proposal",
      "code" : {
        "coding" : [{
          "system" : "http://loinc.org",
          "code" : "24606-6",
          "display" : "MG Breast Screening"
        }]
      },
      "subject" : {
        "reference" : "Patient/defaultPatient",
        "display" : "Jane Doe"
      },
      "occurrenceDateTime" : "2011-01-01",
      "reasonCode" : [{
        "coding" : [{
          "system" : "http://cancerscreeningcds.github.io/bcsm-cds/CodeSystem/screening-observation-code-system",
          "code" : "firstdeggenetic",
          "display" : "First degree relative with genetic marker or syndrome"
        }]
      }]
    }
  },
  {
    "fullUrl" : "http://cancerscreeningcds.github.io/bcsm-cds/ServiceRequest/548",
    "resource" : {
      "resourceType" : "ServiceRequest",
      "id" : "548",
      "text" : {
        "status" : "generated",
        "div" : "<div xmlns=\"http://www.w3.org/1999/xhtml\"><a name=\"ServiceRequest_548\"> </a><p class=\"res-header-id\"><b>Generated Narrative: ServiceRequest 548</b></p><a name=\"548\"> </a><a name=\"hc548\"> </a><a name=\"548-en-US\"> </a><p><b>basedOn</b>: <a href=\"ActivityDefinition-BreastCancerScreeningServiceRequest.html\">Breast Cancer Screening Service Request</a></p><p><b>status</b>: option</p><p><b>intent</b>: Proposal</p><p><b>code</b>: <span title=\"Codes:{http://loinc.org 30794-2}\">MR Breast</span></p><p><b>subject</b>: <a href=\"Bundle-eve-Age45to54_act-acsavgrecs45_act-uspstfavgrecs.html#Patient_defaultPatient\">Jane Doe</a></p><p><b>occurrence</b>: 2011-01-01</p><p><b>reasonCode</b>: <span title=\"Codes:{http://cancerscreeningcds.github.io/bcsm-cds/CodeSystem/screening-observation-code-system firstdeggenetic}\">First degree relative with genetic marker or syndrome</span></p></div>"
      },
      "basedOn" : [{
        "reference" : "http://cancerscreeningcds.github.io/bcsm-cds/ActivityDefinition/BreastCancerScreeningServiceRequest"
      }],
      "status" : "option",
      "intent" : "proposal",
      "code" : {
        "coding" : [{
          "system" : "http://loinc.org",
          "code" : "30794-2",
          "display" : "MR Breast"
        }]
      },
      "subject" : {
        "reference" : "Patient/defaultPatient",
        "display" : "Jane Doe"
      },
      "occurrenceDateTime" : "2011-01-01",
      "reasonCode" : [{
        "coding" : [{
          "system" : "http://cancerscreeningcds.github.io/bcsm-cds/CodeSystem/screening-observation-code-system",
          "code" : "firstdeggenetic",
          "display" : "First degree relative with genetic marker or syndrome"
        }]
      }]
    }
  },
  {
    "fullUrl" : "http://cancerscreeningcds.github.io/bcsm-cds/ServiceRequest/549",
    "resource" : {
      "resourceType" : "ServiceRequest",
      "id" : "549",
      "text" : {
        "status" : "generated",
        "div" : "<div xmlns=\"http://www.w3.org/1999/xhtml\"><a name=\"ServiceRequest_549\"> </a><p class=\"res-header-id\"><b>Generated Narrative: ServiceRequest 549</b></p><a name=\"549\"> </a><a name=\"hc549\"> </a><a name=\"549-en-US\"> </a><p><b>basedOn</b>: <a href=\"ActivityDefinition-BreastCancerScreeningServiceRequest.html\">Breast Cancer Screening Service Request</a></p><p><b>status</b>: option</p><p><b>intent</b>: Proposal</p><p><b>code</b>: <span title=\"Codes:{http://loinc.org 24606-6}\">MG Breast Screening</span></p><p><b>subject</b>: <a href=\"Bundle-eve-Age45to54_act-acsavgrecs45_act-uspstfavgrecs.html#Patient_defaultPatient\">Jane Doe</a></p><p><b>occurrence</b>: 2021-01-01</p><p><b>reasonCode</b>: <span title=\"Codes:{http://cancerscreeningcds.github.io/bcsm-cds/CodeSystem/screening-observation-code-system USPSTFaveragerisk}\">USPSTF average risk</span></p></div>"
      },
      "basedOn" : [{
        "reference" : "http://cancerscreeningcds.github.io/bcsm-cds/ActivityDefinition/BreastCancerScreeningServiceRequest"
      }],
      "status" : "option",
      "intent" : "proposal",
      "code" : {
        "coding" : [{
          "system" : "http://loinc.org",
          "code" : "24606-6",
          "display" : "MG Breast Screening"
        }]
      },
      "subject" : {
        "reference" : "Patient/defaultPatient",
        "display" : "Jane Doe"
      },
      "occurrenceDateTime" : "2021-01-01",
      "reasonCode" : [{
        "coding" : [{
          "system" : "http://cancerscreeningcds.github.io/bcsm-cds/CodeSystem/screening-observation-code-system",
          "code" : "USPSTFaveragerisk",
          "display" : "USPSTF average risk"
        }]
      }]
    }
  }]
}