{
  "resourceType" : "Bundle",
  "id" : "PrimaryScreeningDecision_inc-AgeAtLeast18_no",
  "type" : "collection",
  "entry" : [{
    "fullUrl" : "http://cancerscreeningcds.github.io/bcsm-cds/CarePlan/211",
    "resource" : {
      "resourceType" : "CarePlan",
      "id" : "211",
      "text" : {
        "status" : "generated",
        "div" : "<div xmlns=\"http://www.w3.org/1999/xhtml\"><a name=\"CarePlan_211\"> </a><p class=\"res-header-id\"><b>Generated Narrative: CarePlan 211</b></p><a name=\"211\"> </a><a name=\"hc211\"> </a><a name=\"211-en-US\"> </a><p><b>instantiatesCanonical</b>: <a href=\"PlanDefinition-PrimaryScreeningDecision.html\">Primary Screening Decision</a></p><p><b>status</b>: Draft</p><p><b>intent</b>: Proposal</p><p><b>subject</b>: <a href=\"Bundle-inc-AgeAtLeast18_no.html#Patient_9f22a14b-1741-41b7-8bc6-b0ea8668eec0\">Joanne Smith</a></p><p><b>created</b>: 2024-12-10 00:00:00+0000</p><h3>Activities</h3><table class=\"grid\"><tr><td style=\"display: none\">-</td><td><b>Reference</b></td></tr><tr><td style=\"display: none\">*</td><td><a href=\"Bundle-PrimaryScreeningDecision_inc-AgeAtLeast18_no.html#RequestGroup_212\">Bundle: type = collection</a></td></tr></table></div>"
      },
      "instantiatesCanonical" : ["http://cancerscreeningcds.github.io/bcsm-cds/PlanDefinition/PrimaryScreeningDecision"],
      "status" : "draft",
      "intent" : "proposal",
      "subject" : {
        "reference" : "Patient/9f22a14b-1741-41b7-8bc6-b0ea8668eec0",
        "display" : "Joanne Smith"
      },
      "created" : "2024-12-10T00:00:00.0Z",
      "activity" : [{
        "reference" : {
          "reference" : "RequestGroup/212"
        }
      }]
    }
  },
  {
    "fullUrl" : "http://cancerscreeningcds.github.io/bcsm-cds/RequestGroup/212",
    "resource" : {
      "resourceType" : "RequestGroup",
      "id" : "212",
      "text" : {
        "status" : "extensions",
        "div" : "<div xmlns=\"http://www.w3.org/1999/xhtml\"><a name=\"RequestGroup_212\"> </a><p class=\"res-header-id\"><b>Generated Narrative: RequestGroup 212</b></p><a name=\"212\"> </a><a name=\"hc212\"> </a><a name=\"212-en-US\"> </a><p><b>Messages</b>: <a href=\"#hc212/contained-1\">OperationOutcome</a></p><p><b>instantiatesCanonical</b>: <a href=\"PlanDefinition-PrimaryScreeningDecision.html\">Primary Screening Decision</a></p><p><b>status</b>: Draft</p><p><b>intent</b>: Proposal</p><p><b>subject</b>: <a href=\"Bundle-inc-AgeAtLeast18_no.html#Patient_9f22a14b-1741-41b7-8bc6-b0ea8668eec0\">Joanne Smith</a></p><hr/><blockquote><p class=\"res-header-id\"><b>Generated Narrative: OperationOutcome #contained-1</b></p><a name=\"212/contained-1\"> </a><a name=\"hc212/contained-1\"> </a><a name=\"212/contained-1-en-US\"> </a><table class=\"grid\"><tr><td><b>Severity</b></td><td><b>Location</b></td><td><b>Code</b></td><td><b>Details</b></td><td><b>Diagnostics</b></td></tr><tr><td>Error</td><td/><td>Processing Failure</td><td/><td>Excluded or not included</td></tr></table></blockquote></div>"
      },
      "contained" : [{
        "resourceType" : "OperationOutcome",
        "id" : "contained-1",
        "issue" : [{
          "severity" : "error",
          "code" : "processing",
          "details" : {
            "coding" : [{
              "system" : "http://example.org/CodeSystem/plan-definition-action-reason-code-system",
              "code" : "excludedornotincluded"
            }]
          },
          "diagnostics" : "Excluded or not included"
        }]
      }],
      "extension" : [{
        "url" : "http://hl7.org/fhir/StructureDefinition/cqf-messages",
        "valueReference" : {
          "reference" : "#contained-1"
        }
      }],
      "instantiatesCanonical" : ["http://cancerscreeningcds.github.io/bcsm-cds/PlanDefinition/PrimaryScreeningDecision"],
      "status" : "draft",
      "intent" : "proposal",
      "subject" : {
        "reference" : "Patient/9f22a14b-1741-41b7-8bc6-b0ea8668eec0",
        "display" : "Joanne Smith"
      }
    }
  }]
}