<?xml version="1.0" encoding="UTF-8"?>

<Bundle xmlns="http://hl7.org/fhir">
  <id value="FollowupScreeningResult_eve-biradsscore_bi-rads_missing_error"/>
  <type value="collection"/>
  <entry>
    <fullUrl value="http://cancerscreeningcds.github.io/bcsm-cds/CarePlan/365"/>
    <resource>
      <CarePlan>
        <id value="365"/>
        <text>
          <status value="generated"/><div xmlns="http://www.w3.org/1999/xhtml"><a name="CarePlan_365"> </a><p class="res-header-id"><b>Generated Narrative: CarePlan 365</b></p><a name="365"> </a><a name="hc365"> </a><a name="365-en-US"> </a><p><b>instantiatesCanonical</b>: <a href="PlanDefinition-flow-FollowupScreeningResult.html">Followup Screening Result</a></p><p><b>status</b>: Draft</p><p><b>intent</b>: Proposal</p><p><b>subject</b>: <a href="Bundle-eve-Age45to54_act-acsavgrecs45_act-uspstfavgrecs.html#Patient_defaultPatient">Jane Doe</a></p><p><b>created</b>: 2024-12-10 00:00:00+0000</p><h3>Activities</h3><table class="grid"><tr><td style="display: none">-</td><td><b>Reference</b></td></tr><tr><td style="display: none">*</td><td><a href="Bundle-FollowupScreeningResult_eve-biradsscore_bi-rads_missing_error.html#RequestGroup_366">Bundle: type = collection</a></td></tr></table></div>
        </text>
        <instantiatesCanonical value="http://cancerscreeningcds.github.io/bcsm-cds/PlanDefinition/flow-FollowupScreeningResult"/>
        <status value="draft"/>
        <intent value="proposal"/>
        <subject>
          <reference value="Patient/defaultPatient"/>
          <display value="Jane Doe"/>
        </subject>
        <created value="2024-12-10T00:00:00.0Z"/>
        <activity>
          <reference>
            <reference value="RequestGroup/366"/>
          </reference>
        </activity>
      </CarePlan>
    </resource>
  </entry>
  <entry>
    <fullUrl value="http://cancerscreeningcds.github.io/bcsm-cds/RequestGroup/366"/>
    <resource>
      <RequestGroup>
        <id value="366"/>
        <text>
          <status value="extensions"/><div xmlns="http://www.w3.org/1999/xhtml"><a name="RequestGroup_366"> </a><p class="res-header-id"><b>Generated Narrative: RequestGroup 366</b></p><a name="366"> </a><a name="hc366"> </a><a name="366-en-US"> </a><p><b>Messages</b>: <a href="#hc366/contained-1">OperationOutcome</a></p><p><b>instantiatesCanonical</b>: <a href="PlanDefinition-flow-FollowupScreeningResult.html">Followup Screening Result</a></p><p><b>status</b>: Draft</p><p><b>intent</b>: Proposal</p><p><b>subject</b>: <a href="Bundle-eve-Age45to54_act-acsavgrecs45_act-uspstfavgrecs.html#Patient_defaultPatient">Jane Doe</a></p><hr/><blockquote><p class="res-header-id"><b>Generated Narrative: OperationOutcome #contained-1</b></p><a name="366/contained-1"> </a><a name="hc366/contained-1"> </a><a name="366/contained-1-en-US"> </a><table class="grid"><tr><td><b>Severity</b></td><td><b>Location</b></td><td><b>Code</b></td><td><b>Details</b></td><td><b>Diagnostics</b></td></tr><tr><td>Warning</td><td/><td>Processing Failure</td><td/><td>An imaging test was found without a result. Please review patient record to resolve.</td></tr><tr><td>Warning</td><td/><td>Processing Failure</td><td/><td>A laboratory test was found with an unexpected result code. Please review patient record to resolve.</td></tr></table></blockquote></div>
        </text>
        <contained>
          <OperationOutcome>
            <id value="contained-1"/>
            <issue>
              <severity value="warning"/>
              <code value="processing"/>
              <details>
                <coding>
                  <system value="http://example.org/CodeSystem/plan-definition-action-reason-code-system"/>
                  <code value="missingresultcode"/>
                </coding>
              </details>
              <diagnostics value="An imaging test was found without a result. Please review patient record to resolve."/>
            </issue>
            <issue>
              <severity value="warning"/>
              <code value="processing"/>
              <details>
                <coding>
                  <system value="http://example.org/CodeSystem/plan-definition-action-reason-code-system"/>
                  <code value="unknownresultcode"/>
                </coding>
              </details>
              <diagnostics value="A laboratory test was found with an unexpected result code. Please review patient record to resolve."/>
            </issue>
          </OperationOutcome>
        </contained>
        <extension url="http://hl7.org/fhir/StructureDefinition/cqf-messages">
          <valueReference>
            <reference value="#contained-1"/>
          </valueReference>
        </extension>
        <instantiatesCanonical value="http://cancerscreeningcds.github.io/bcsm-cds/PlanDefinition/flow-FollowupScreeningResult"/>
        <status value="draft"/>
        <intent value="proposal"/>
        <subject>
          <reference value="Patient/defaultPatient"/>
          <display value="Jane Doe"/>
        </subject>
      </RequestGroup>
    </resource>
  </entry>
</Bundle>