<?xml version="1.0" encoding="UTF-8"?>

<Bundle xmlns="http://hl7.org/fhir">
  <id value="ScreeningEligible_eve-mastectomy_yes_end-noteligible"/>
  <type value="collection"/>
  <entry>
    <fullUrl value="http://cancerscreeningcds.github.io/bcsm-cds/CarePlan/508"/>
    <resource>
      <CarePlan>
        <id value="508"/>
        <text>
          <status value="generated"/><div xmlns="http://www.w3.org/1999/xhtml"><a name="CarePlan_508"> </a><p class="res-header-id"><b>Generated Narrative: CarePlan 508</b></p><a name="508"> </a><a name="hc508"> </a><a name="508-en-US"> </a><p><b>instantiatesCanonical</b>: <a href="PlanDefinition-flow-ScreeningEligible.html">Screening Eligible</a></p><p><b>status</b>: Draft</p><p><b>intent</b>: Proposal</p><p><b>subject</b>: <a href="Bundle-eve-mastectomy_yes_end-noteligible.html#Patient_f45dd69b-bb25-4dc5-8e58-999eb2b2c98a">Joanne Smith</a></p><p><b>created</b>: 2024-12-10 00:00:00+0000</p><h3>Activities</h3><table class="grid"><tr><td style="display: none">-</td><td><b>Reference</b></td></tr><tr><td style="display: none">*</td><td><a href="Bundle-ScreeningEligible_eve-mastectomy_yes_end-noteligible.html#RequestGroup_509">Bundle: type = collection</a></td></tr></table></div>
        </text>
        <instantiatesCanonical value="http://cancerscreeningcds.github.io/bcsm-cds/PlanDefinition/flow-ScreeningEligible"/>
        <status value="draft"/>
        <intent value="proposal"/>
        <subject>
          <reference value="Patient/f45dd69b-bb25-4dc5-8e58-999eb2b2c98a"/>
          <display value="Joanne Smith"/>
        </subject>
        <created value="2024-12-10T00:00:00.0Z"/>
        <activity>
          <reference>
            <reference value="RequestGroup/509"/>
          </reference>
        </activity>
      </CarePlan>
    </resource>
  </entry>
  <entry>
    <fullUrl value="http://cancerscreeningcds.github.io/bcsm-cds/RequestGroup/509"/>
    <resource>
      <RequestGroup>
        <id value="509"/>
        <text>
          <status value="generated"/><div xmlns="http://www.w3.org/1999/xhtml"><a name="RequestGroup_509"> </a><p class="res-header-id"><b>Generated Narrative: RequestGroup 509</b></p><a name="509"> </a><a name="hc509"> </a><a name="509-en-US"> </a><p><b>instantiatesCanonical</b>: <a href="PlanDefinition-flow-ScreeningEligible.html">Screening Eligible</a></p><p><b>status</b>: Draft</p><p><b>intent</b>: Proposal</p><p><b>subject</b>: <a href="Bundle-eve-mastectomy_yes_end-noteligible.html#Patient_f45dd69b-bb25-4dc5-8e58-999eb2b2c98a">Joanne Smith</a></p><blockquote><p><b>action</b></p><blockquote><p><b>id</b></p>NotEligibleBilateralMastectomy</blockquote><p><b>title</b>: Not eligible for screening</p><p><b>description</b>: This patient is not eligible for screening.

This patient has had bilateral mastectomy and does not meet the eligibility requirements for routine breast cancer screening.</p><p><b>code</b>: <span title="Codes:{http://cancerscreeningcds.github.io/bcsm-cds/CodeSystem/plan-definition-action-code-system noteligible}">Not eligible for screening</span></p><h3>Documentations</h3><table class="grid"><tr><td style="display: none">-</td><td><b>Type</b></td><td><b>Label</b></td><td><b>Display</b></td><td><b>Citation</b></td><td><b>Url</b></td></tr><tr><td style="display: none">*</td><td>Citation</td><td>USPSTF</td><td>Screening for Breast Cancer: US Preventive Services Task Force Recommendation Statement</td><td><div><p>US Preventive Services Task Force. Screening for Breast Cancer: US Preventive Services Task Force Recommendation Statement. JAMA. Published online April 30, 2024.</p>
</div></td><td><a href="https://www.uspreventiveservicestaskforce.org/uspstf/recommendation/breast-cancer-screening">https://www.uspreventiveservicestaskforce.org/uspstf/recommendation/breast-cancer-screening</a></td></tr><tr><td style="display: none">*</td><td>Derived From</td><td>Screening Eligible</td><td>Individuals who have certain signs or symptoms concerning for breast cancer or other breast diseases are excluded from routine screening pathways and should have diagnostic testing performed.</td><td> </td><td> </td></tr></table><p><b>resource</b>: <a href="Bundle-ScreeningEligible_eve-mastectomy_yes_end-noteligible.html#CommunicationRequest_511">Bundle: type = collection</a></p></blockquote></div>
        </text>
        <instantiatesCanonical value="http://cancerscreeningcds.github.io/bcsm-cds/PlanDefinition/flow-ScreeningEligible"/>
        <status value="draft"/>
        <intent value="proposal"/>
        <subject>
          <reference value="Patient/f45dd69b-bb25-4dc5-8e58-999eb2b2c98a"/>
          <display value="Joanne Smith"/>
        </subject>
        <action id="NotEligibleBilateralMastectomy">
          <title value="Not eligible for screening"/>
          <description value="This patient is not eligible for screening.&#xA;&#xA;This patient has had bilateral mastectomy and does not meet the eligibility requirements for routine breast cancer screening."/>
          <code>
            <coding>
              <system value="http://cancerscreeningcds.github.io/bcsm-cds/CodeSystem/plan-definition-action-code-system"/>
              <code value="noteligible"/>
              <display value="Not eligible for screening"/>
            </coding>
          </code>
          <documentation>
            <type value="citation"/>
            <label value="USPSTF"/>
            <display value="Screening for Breast Cancer: US Preventive Services Task Force Recommendation Statement"/>
            <citation value="US Preventive Services Task Force. Screening for Breast Cancer: US Preventive Services Task Force Recommendation Statement. JAMA. Published online April 30, 2024."/>
            <url value="https://www.uspreventiveservicestaskforce.org/uspstf/recommendation/breast-cancer-screening"/>
          </documentation>
          <documentation>
            <type value="derived-from"/>
            <label value="Screening Eligible"/>
            <display value="Individuals who have certain signs or symptoms concerning for breast cancer or other breast diseases are excluded from routine screening pathways and should have diagnostic testing performed."/>
          </documentation>
          <resource>
            <reference value="CommunicationRequest/511"/>
          </resource>
        </action>
      </RequestGroup>
    </resource>
  </entry>
  <entry>
    <fullUrl value="http://cancerscreeningcds.github.io/bcsm-cds/CommunicationRequest/511"/>
    <resource>
      <CommunicationRequest>
        <id value="511"/>
        <text>
          <status value="generated"/><div xmlns="http://www.w3.org/1999/xhtml"><a name="CommunicationRequest_511"> </a><p class="res-header-id"><b>Generated Narrative: CommunicationRequest 511</b></p><a name="511"> </a><a name="hc511"> </a><a name="511-en-US"> </a><p><b>basedOn</b>: <a href="ActivityDefinition-CommunicateNotEligible.html">Communicate Not Eligible</a></p><p><b>status</b>: option</p><p><b>subject</b>: <a href="Bundle-eve-mastectomy_yes_end-noteligible.html#Patient_f45dd69b-bb25-4dc5-8e58-999eb2b2c98a">Joanne Smith</a></p><h3>Payloads</h3><table class="grid"><tr><td style="display: none">-</td><td><b>Content[x]</b></td></tr><tr><td style="display: none">*</td><td>Not eligible for screening</td></tr></table><p><b>reasonCode</b>: <span title="Codes:{http://cancerscreeningcds.github.io/bcsm-cds/CodeSystem/screening-observation-code-system bilatmastectomy}">Bilateral mastectomy</span></p></div>
        </text>
        <basedOn>
          <reference value="http://cancerscreeningcds.github.io/bcsm-cds/ActivityDefinition/CommunicateNotEligible"/>
        </basedOn>
        <status value="option"/>
        <subject>
          <reference value="Patient/f45dd69b-bb25-4dc5-8e58-999eb2b2c98a"/>
          <display value="Joanne Smith"/>
        </subject>
        <payload>
          <contentString value="Not eligible for screening"/>
        </payload>
        <reasonCode>
          <coding>
            <system value="http://cancerscreeningcds.github.io/bcsm-cds/CodeSystem/screening-observation-code-system"/>
            <code value="bilatmastectomy"/>
            <display value="Bilateral mastectomy"/>
          </coding>
        </reasonCode>
      </CommunicationRequest>
    </resource>
  </entry>
</Bundle>