<?xml version="1.0" encoding="UTF-8"?>

<Bundle xmlns="http://hl7.org/fhir">
  <id value="PrimaryScreeningDecision_JosephineGreene-past-breast-pain-adh-biopsy"/>
  <type value="collection"/>
  <entry>
    <fullUrl value="http://cancerscreeningcds.github.io/bcsm-cds/CarePlan/14"/>
    <resource>
      <CarePlan>
        <id value="14"/>
        <text>
          <status value="generated"/><div xmlns="http://www.w3.org/1999/xhtml"><a name="CarePlan_14"> </a><p class="res-header-id"><b>Generated Narrative: CarePlan 14</b></p><a name="14"> </a><a name="hc14"> </a><a name="14-en-US"> </a><p><b>instantiatesCanonical</b>: <a href="PlanDefinition-PrimaryScreeningDecision.html">Primary Screening Decision</a></p><p><b>status</b>: Draft</p><p><b>intent</b>: Proposal</p><p><b>subject</b>: <a href="Bundle-JosephineGreene-past-breast-pain-adh-biopsy.html#Patient_JosephineGreene">Josephine38 Greene57</a></p><p><b>created</b>: 2024-12-10 00:00:00+0000</p><h3>Activities</h3><table class="grid"><tr><td style="display: none">-</td><td><b>Reference</b></td></tr><tr><td style="display: none">*</td><td><a href="Bundle-PrimaryScreeningDecision_JosephineGreene-past-breast-pain-adh-biopsy.html#RequestGroup_15">Bundle: type = collection</a></td></tr></table></div>
        </text>
        <instantiatesCanonical value="http://cancerscreeningcds.github.io/bcsm-cds/PlanDefinition/PrimaryScreeningDecision"/>
        <status value="draft"/>
        <intent value="proposal"/>
        <subject>
          <reference value="Patient/JosephineGreene"/>
          <display value="Josephine38 Greene57"/>
        </subject>
        <created value="2024-12-10T00:00:00.0Z"/>
        <activity>
          <reference>
            <reference value="RequestGroup/15"/>
          </reference>
        </activity>
      </CarePlan>
    </resource>
  </entry>
  <entry>
    <fullUrl value="http://cancerscreeningcds.github.io/bcsm-cds/RequestGroup/15"/>
    <resource>
      <RequestGroup>
        <id value="15"/>
        <text>
          <status value="extensions"/><div xmlns="http://www.w3.org/1999/xhtml"><a name="RequestGroup_15"> </a><p class="res-header-id"><b>Generated Narrative: RequestGroup 15</b></p><a name="15"> </a><a name="hc15"> </a><a name="15-en-US"> </a><p><b>instantiatesCanonical</b>: <a href="PlanDefinition-PrimaryScreeningDecision.html">Primary Screening Decision</a></p><p><b>status</b>: Draft</p><p><b>intent</b>: Proposal</p><p><b>subject</b>: <a href="Bundle-JosephineGreene-past-breast-pain-adh-biopsy.html#Patient_JosephineGreene">Josephine38 Greene57</a></p><blockquote><p><b>action</b></p><blockquote><p><b>id</b></p>ACSMammoAtypicalBiopsy</blockquote><p><b>Recommendation Flag Extension</b>: <span title="Codes:{http://cancerscreeningcds.github.io/bcsm-cds/CodeSystem/recommendation-flag-code-system not-due}">Not due</span></p><p><b>title</b>: Annual screening mammogram starting age 30</p><p><b>description</b>: An annual screening mammogram starting at age 30 is recommended.

Women who are at higher than average risk for breast cancer based on past atypical biopsy should get a mammogram every year, typically starting at age 30.
</p><p><b>code</b>: <span title="Codes:{http://loinc.org 24606-6}">MG Breast Screening</span></p><h3>Documentations</h3><table class="grid"><tr><td style="display: none">-</td><td><b>Type</b></td><td><b>Label</b></td><td><b>Display</b></td><td><b>Url</b></td></tr><tr><td style="display: none">*</td><td>Citation</td><td>ACS</td><td>American Cancer Society Recommendations for the Early Detection of Breast Cancer</td><td><a href="https://www.cancer.org/cancer/types/breast-cancer/screening-tests-and-early-detection/american-cancer-society-recommendations-for-the-early-detection-of-breast-cancer.html">https://www.cancer.org/cancer/types/breast-cancer/screening-tests-and-early-detection/american-cancer-society-recommendations-for-the-early-detection-of-breast-cancer.html</a></td></tr></table><p><b>timing</b>: Events: 2025-11-15 , Once per 1 year</p><p><b>resource</b>: <a href="Bundle-PrimaryScreeningDecision_JosephineGreene-past-breast-pain-adh-biopsy.html#ServiceRequest_16">Bundle: type = collection</a></p></blockquote><blockquote><p><b>action</b></p><blockquote><p><b>id</b></p>ACSAtypicalBiopsy</blockquote><p><b>title</b>: Perform lifetime risk assessment</p><p><b>description</b>: Consider performing assessment of lifetime risk. 

If estimated lifetime risk is &gt;20%, patient may be eligible for supplemental screening with annual screening MRI.</p><p><b>code</b>: <span title="Codes:{http://cancerscreeningcds.github.io/bcsm-cds/CodeSystem/plan-definition-action-code-system lifetimeriskassessment}">Perform lifetime risk assessment</span></p><h3>Documentations</h3><table class="grid"><tr><td style="display: none">-</td><td><b>Type</b></td><td><b>Label</b></td><td><b>Display</b></td><td><b>Citation</b></td><td><b>Url</b></td></tr><tr><td style="display: none">*</td><td>Citation</td><td>ACS</td><td>American Cancer Society Guidelines for Breast Screening with MRI as an Adjunct to Mammography</td><td><div><p>Oeffinger KC, Fontham ETH, Etzioni R, et al. Breast Cancer Screening for Women at Average Risk: 2015 Guideline Update From the American Cancer Society. JAMA. 2015;314(15):1599–1614.</p>
</div></td><td><a href="https://acsjournals.onlinelibrary.wiley.com/doi/full/10.3322/canjclin.57.2.75">https://acsjournals.onlinelibrary.wiley.com/doi/full/10.3322/canjclin.57.2.75</a></td></tr></table><p><b>resource</b>: <a href="Bundle-PrimaryScreeningDecision_JosephineGreene-past-breast-pain-adh-biopsy.html#ServiceRequest_17">Bundle: type = collection</a></p></blockquote></div>
        </text>
        <instantiatesCanonical value="http://cancerscreeningcds.github.io/bcsm-cds/PlanDefinition/PrimaryScreeningDecision"/>
        <status value="draft"/>
        <intent value="proposal"/>
        <subject>
          <reference value="Patient/JosephineGreene"/>
          <display value="Josephine38 Greene57"/>
        </subject>
        <action id="ACSMammoAtypicalBiopsy">
          <extension url="http://cancerscreeningcds.github.io/bcsm-cds/StructureDefinition/csm-recommendation-flag">
            <valueCodeableConcept>
              <coding>
                <system value="http://cancerscreeningcds.github.io/bcsm-cds/CodeSystem/recommendation-flag-code-system"/>
                <code value="not-due"/>
                <display value="Not due"/>
              </coding>
            </valueCodeableConcept>
          </extension>
          <title value="Annual screening mammogram starting age 30"/>
          <description value="An annual screening mammogram starting at age 30 is recommended.&#xA;&#xA;Women who are at higher than average risk for breast cancer based on past atypical biopsy should get a mammogram every year, typically starting at age 30.&#xA;"/>
          <code>
            <coding>
              <system value="http://loinc.org"/>
              <code value="24606-6"/>
              <display value="MG Breast Screening"/>
            </coding>
          </code>
          <documentation>
            <type value="citation"/>
            <label value="ACS"/>
            <display value="American Cancer Society Recommendations for the Early Detection of Breast Cancer"/>
            <url value="https://www.cancer.org/cancer/types/breast-cancer/screening-tests-and-early-detection/american-cancer-society-recommendations-for-the-early-detection-of-breast-cancer.html"/>
          </documentation>
          <timingTiming>
            <event value="2025-11-15"/>
            <repeat>
              <boundsPeriod>
                <start value="2024-10-10"/>
              </boundsPeriod>
              <frequency value="1"/>
              <period value="1"/>
              <periodUnit value="a"/>
            </repeat>
          </timingTiming>
          <resource>
            <reference value="ServiceRequest/16"/>
          </resource>
        </action>
        <action id="ACSAtypicalBiopsy">
          <title value="Perform lifetime risk assessment"/>
          <description value="Consider performing assessment of lifetime risk. &#xA;&#xA;If estimated lifetime risk is &gt;20%, patient may be eligible for supplemental screening with annual screening MRI."/>
          <code>
            <coding>
              <system value="http://cancerscreeningcds.github.io/bcsm-cds/CodeSystem/plan-definition-action-code-system"/>
              <code value="lifetimeriskassessment"/>
              <display value="Perform lifetime risk assessment"/>
            </coding>
          </code>
          <documentation>
            <type value="citation"/>
            <label value="ACS"/>
            <display value="American Cancer Society Guidelines for Breast Screening with MRI as an Adjunct to Mammography"/>
            <citation value="Oeffinger KC, Fontham ETH, Etzioni R, et al. Breast Cancer Screening for Women at Average Risk: 2015 Guideline Update From the American Cancer Society. JAMA. 2015;314(15):1599–1614."/>
            <url value="https://acsjournals.onlinelibrary.wiley.com/doi/full/10.3322/canjclin.57.2.75"/>
          </documentation>
          <resource>
            <reference value="ServiceRequest/17"/>
          </resource>
        </action>
      </RequestGroup>
    </resource>
  </entry>
  <entry>
    <fullUrl value="http://cancerscreeningcds.github.io/bcsm-cds/ServiceRequest/16"/>
    <resource>
      <ServiceRequest>
        <id value="16"/>
        <text>
          <status value="generated"/><div xmlns="http://www.w3.org/1999/xhtml"><a name="ServiceRequest_16"> </a><p class="res-header-id"><b>Generated Narrative: ServiceRequest 16</b></p><a name="16"> </a><a name="hc16"> </a><a name="16-en-US"> </a><p><b>basedOn</b>: <a href="ActivityDefinition-BreastCancerScreeningServiceRequest.html">Breast Cancer Screening Service Request</a></p><p><b>status</b>: option</p><p><b>intent</b>: Proposal</p><p><b>code</b>: <span title="Codes:{http://loinc.org 24606-6}">MG Breast Screening</span></p><p><b>subject</b>: <a href="Bundle-JosephineGreene-past-breast-pain-adh-biopsy.html#Patient_JosephineGreene">Josephine38 Greene57</a></p><p><b>occurrence</b>: 2025-11-15</p><p><b>reasonCode</b>: <span title="Codes:{http://cancerscreeningcds.github.io/bcsm-cds/CodeSystem/screening-observation-code-system atypicalbx}">Atypical biopsy</span></p></div>
        </text>
        <basedOn>
          <reference value="http://cancerscreeningcds.github.io/bcsm-cds/ActivityDefinition/BreastCancerScreeningServiceRequest"/>
        </basedOn>
        <status value="option"/>
        <intent value="proposal"/>
        <code>
          <coding>
            <system value="http://loinc.org"/>
            <code value="24606-6"/>
            <display value="MG Breast Screening"/>
          </coding>
        </code>
        <subject>
          <reference value="Patient/JosephineGreene"/>
          <display value="Josephine38 Greene57"/>
        </subject>
        <occurrenceDateTime value="2025-11-15"/>
        <reasonCode>
          <coding>
            <system value="http://cancerscreeningcds.github.io/bcsm-cds/CodeSystem/screening-observation-code-system"/>
            <code value="atypicalbx"/>
            <display value="Atypical biopsy"/>
          </coding>
        </reasonCode>
      </ServiceRequest>
    </resource>
  </entry>
  <entry>
    <fullUrl value="http://cancerscreeningcds.github.io/bcsm-cds/ServiceRequest/17"/>
    <resource>
      <ServiceRequest>
        <id value="17"/>
        <text>
          <status value="generated"/><div xmlns="http://www.w3.org/1999/xhtml"><a name="ServiceRequest_17"> </a><p class="res-header-id"><b>Generated Narrative: ServiceRequest 17</b></p><a name="17"> </a><a name="hc17"> </a><a name="17-en-US"> </a><p><b>basedOn</b>: <a href="ActivityDefinition-BreastCancerScreeningServiceRequest.html">Breast Cancer Screening Service Request</a></p><p><b>status</b>: option</p><p><b>intent</b>: Proposal</p><p><b>code</b>: <span title="Codes:{http://cancerscreeningcds.github.io/bcsm-cds/CodeSystem/plan-definition-action-code-system lifetimeriskassessment}">Perform lifetime risk assessment</span></p><p><b>subject</b>: <a href="Bundle-JosephineGreene-past-breast-pain-adh-biopsy.html#Patient_JosephineGreene">Josephine38 Greene57</a></p><p><b>reasonCode</b>: <span title="Codes:{http://cancerscreeningcds.github.io/bcsm-cds/CodeSystem/screening-observation-code-system atypicalbx}">Atypical biopsy</span></p></div>
        </text>
        <basedOn>
          <reference value="http://cancerscreeningcds.github.io/bcsm-cds/ActivityDefinition/BreastCancerScreeningServiceRequest"/>
        </basedOn>
        <status value="option"/>
        <intent value="proposal"/>
        <code>
          <coding>
            <system value="http://cancerscreeningcds.github.io/bcsm-cds/CodeSystem/plan-definition-action-code-system"/>
            <code value="lifetimeriskassessment"/>
            <display value="Perform lifetime risk assessment"/>
          </coding>
        </code>
        <subject>
          <reference value="Patient/JosephineGreene"/>
          <display value="Josephine38 Greene57"/>
        </subject>
        <reasonCode>
          <coding>
            <system value="http://cancerscreeningcds.github.io/bcsm-cds/CodeSystem/screening-observation-code-system"/>
            <code value="atypicalbx"/>
            <display value="Atypical biopsy"/>
          </coding>
        </reasonCode>
      </ServiceRequest>
    </resource>
  </entry>
</Bundle>