{
  "resourceType" : "Bundle",
  "id" : "PrimaryScreeningDecision_eve-atypicalbx__eve-highlifetimerisk__act-acshighriskmammo__act-acshighriskmri",
  "type" : "collection",
  "entry" : [{
    "fullUrl" : "http://cancerscreeningcds.github.io/bcsm-cds/CarePlan/148",
    "resource" : {
      "resourceType" : "CarePlan",
      "id" : "148",
      "text" : {
        "status" : "generated",
        "div" : "<div xmlns=\"http://www.w3.org/1999/xhtml\"><a name=\"CarePlan_148\"> </a><p class=\"res-header-id\"><b>Generated Narrative: CarePlan 148</b></p><a name=\"148\"> </a><a name=\"hc148\"> </a><a name=\"148-en-US\"> </a><p><b>instantiatesCanonical</b>: <a href=\"PlanDefinition-PrimaryScreeningDecision.html\">Primary Screening Decision</a></p><p><b>status</b>: Draft</p><p><b>intent</b>: Proposal</p><p><b>subject</b>: <a href=\"Bundle-eve-Age45to54_act-acsavgrecs45_act-uspstfavgrecs.html#Patient_defaultPatient\">Jane Doe</a></p><p><b>created</b>: 2024-12-10 00:00:00+0000</p><h3>Activities</h3><table class=\"grid\"><tr><td style=\"display: none\">-</td><td><b>Reference</b></td></tr><tr><td style=\"display: none\">*</td><td><a href=\"Bundle-PrimaryScreeningDecision_eve-atypicalbx__eve-highlifetimerisk__act-acshighriskmammo__act-acshighriskmri.html#RequestGroup_149\">Bundle: type = collection</a></td></tr></table></div>"
      },
      "instantiatesCanonical" : ["http://cancerscreeningcds.github.io/bcsm-cds/PlanDefinition/PrimaryScreeningDecision"],
      "status" : "draft",
      "intent" : "proposal",
      "subject" : {
        "reference" : "Patient/defaultPatient",
        "display" : "Jane Doe"
      },
      "created" : "2024-12-10T00:00:00.0Z",
      "activity" : [{
        "reference" : {
          "reference" : "RequestGroup/149"
        }
      }]
    }
  },
  {
    "fullUrl" : "http://cancerscreeningcds.github.io/bcsm-cds/RequestGroup/149",
    "resource" : {
      "resourceType" : "RequestGroup",
      "id" : "149",
      "text" : {
        "status" : "extensions",
        "div" : "<div xmlns=\"http://www.w3.org/1999/xhtml\"><a name=\"RequestGroup_149\"> </a><p class=\"res-header-id\"><b>Generated Narrative: RequestGroup 149</b></p><a name=\"149\"> </a><a name=\"hc149\"> </a><a name=\"149-en-US\"> </a><p><b>instantiatesCanonical</b>: <a href=\"PlanDefinition-PrimaryScreeningDecision.html\">Primary Screening Decision</a></p><p><b>status</b>: Draft</p><p><b>intent</b>: Proposal</p><p><b>subject</b>: <a href=\"Bundle-eve-Age45to54_act-acsavgrecs45_act-uspstfavgrecs.html#Patient_defaultPatient\">Jane Doe</a></p><blockquote><p><b>action</b></p><blockquote><p><b>id</b></p>ACSMammoAtypicalBiopsy</blockquote><p><b>Recommendation Flag Extension</b>: <span title=\"Codes:{http://cancerscreeningcds.github.io/bcsm-cds/CodeSystem/recommendation-flag-code-system overdue}\">Overdue</span></p><p><b>title</b>: Annual screening mammogram starting age 30</p><p><b>description</b>: An annual screening mammogram starting at age 30 is recommended.\n\nWomen who are at higher than average risk for breast cancer based on past atypical biopsy should get a mammogram every year, typically starting at age 30.\n</p><p><b>code</b>: <span title=\"Codes:{http://loinc.org 24606-6}\">MG Breast Screening</span></p><h3>Documentations</h3><table class=\"grid\"><tr><td style=\"display: none\">-</td><td><b>Type</b></td><td><b>Label</b></td><td><b>Display</b></td><td><b>Url</b></td></tr><tr><td style=\"display: none\">*</td><td>Citation</td><td>ACS</td><td>American Cancer Society Recommendations for the Early Detection of Breast Cancer</td><td><a href=\"https://www.cancer.org/cancer/types/breast-cancer/screening-tests-and-early-detection/american-cancer-society-recommendations-for-the-early-detection-of-breast-cancer.html\">https://www.cancer.org/cancer/types/breast-cancer/screening-tests-and-early-detection/american-cancer-society-recommendations-for-the-early-detection-of-breast-cancer.html</a></td></tr></table><p><b>timing</b>: Events: 2024-01-01 , Once per 1 year</p><p><b>resource</b>: <a href=\"Bundle-PrimaryScreeningDecision_eve-atypicalbx__eve-highlifetimerisk__act-acshighriskmammo__act-acshighriskmri.html#ServiceRequest_150\">Bundle: type = collection</a></p></blockquote><blockquote><p><b>action</b></p><blockquote><p><b>id</b></p>ACSMriAtypicalBiopsyHighRisk</blockquote><p><b>Recommendation Flag Extension</b>: <span title=\"Codes:{http://cancerscreeningcds.github.io/bcsm-cds/CodeSystem/recommendation-flag-code-system overdue}\">Overdue</span></p><p><b>title</b>: Annual screening MRI starting age 30</p><p><b>description</b>: An annual screening MRI starting at age 30 is recommended in patients with past atypical biopsy and lifetime risk &gt; 20-25%.</p><p><b>code</b>: <span title=\"Codes:{http://loinc.org 30794-2}\">MR Breast</span></p><h3>Documentations</h3><table class=\"grid\"><tr><td style=\"display: none\">-</td><td><b>Type</b></td><td><b>Label</b></td><td><b>Display</b></td><td><b>Citation</b></td><td><b>Url</b></td></tr><tr><td style=\"display: none\">*</td><td>Citation</td><td>ACS</td><td>American Cancer Society Guidelines for Breast Screening with MRI as an Adjunct to Mammography</td><td><div><p>Oeffinger KC, Fontham ETH, Etzioni R, et al. Breast Cancer Screening for Women at Average Risk: 2015 Guideline Update From the American Cancer Society. JAMA. 2015;314(15):1599–1614.</p>\n</div></td><td><a href=\"https://acsjournals.onlinelibrary.wiley.com/doi/full/10.3322/canjclin.57.2.75\">https://acsjournals.onlinelibrary.wiley.com/doi/full/10.3322/canjclin.57.2.75</a></td></tr></table><p><b>timing</b>: Events: 2024-01-01 , Once per 1 year</p><p><b>resource</b>: <a href=\"Bundle-PrimaryScreeningDecision_eve-atypicalbx__eve-highlifetimerisk__act-acshighriskmammo__act-acshighriskmri.html#ServiceRequest_151\">Bundle: type = collection</a></p></blockquote><blockquote><p><b>action</b></p><blockquote><p><b>id</b></p>ACSMammoHighRisk</blockquote><p><b>Recommendation Flag Extension</b>: <span title=\"Codes:{http://cancerscreeningcds.github.io/bcsm-cds/CodeSystem/recommendation-flag-code-system overdue}\">Overdue</span></p><p><b>title</b>: Annual screening mammogram starting age 30</p><p><b>description</b>: An annual screening mammogram starting at age 30 is recommended.\n\nWomen who are at higher than average risk for breast cancer based on certain risk factors should get a mammogram every year, typically starting at age 30.</p><p><b>code</b>: <span title=\"Codes:{http://loinc.org 24606-6}\">MG Breast Screening</span></p><h3>Documentations</h3><table class=\"grid\"><tr><td style=\"display: none\">-</td><td><b>Type</b></td><td><b>Label</b></td><td><b>Display</b></td><td><b>Url</b></td></tr><tr><td style=\"display: none\">*</td><td>Citation</td><td>ACS</td><td>American Cancer Society Recommendations for the Early Detection of Breast Cancer</td><td><a href=\"https://www.cancer.org/cancer/types/breast-cancer/screening-tests-and-early-detection/american-cancer-society-recommendations-for-the-early-detection-of-breast-cancer.html\">https://www.cancer.org/cancer/types/breast-cancer/screening-tests-and-early-detection/american-cancer-society-recommendations-for-the-early-detection-of-breast-cancer.html</a></td></tr></table><p><b>timing</b>: Events: 2011-01-01 , Once per 1 year</p><p><b>resource</b>: <a href=\"Bundle-PrimaryScreeningDecision_eve-atypicalbx__eve-highlifetimerisk__act-acshighriskmammo__act-acshighriskmri.html#ServiceRequest_152\">Bundle: type = collection</a></p></blockquote><blockquote><p><b>action</b></p><blockquote><p><b>id</b></p>ACSMriHighRisk</blockquote><p><b>Recommendation Flag Extension</b>: <span title=\"Codes:{http://cancerscreeningcds.github.io/bcsm-cds/CodeSystem/recommendation-flag-code-system overdue}\">Overdue</span></p><p><b>title</b>: Annual screening MRI starting age 30</p><p><b>description</b>: An annual screening MRI starting at age 30 is recommended.\n\nWomen who are at higher than average risk for breast cancer based on certain risk factors should get a breast MRI every year, typically starting at age 30.</p><p><b>code</b>: <span title=\"Codes:{http://loinc.org 30794-2}\">MR Breast</span></p><h3>Documentations</h3><table class=\"grid\"><tr><td style=\"display: none\">-</td><td><b>Type</b></td><td><b>Label</b></td><td><b>Display</b></td><td><b>Citation</b></td><td><b>Url</b></td></tr><tr><td style=\"display: none\">*</td><td>Citation</td><td>ACS</td><td>American Cancer Society Guidelines for Breast Screening with MRI as an Adjunct to Mammography</td><td><div><p>Oeffinger KC, Fontham ETH, Etzioni R, et al. Breast Cancer Screening for Women at Average Risk: 2015 Guideline Update From the American Cancer Society. JAMA. 2015;314(15):1599–1614.</p>\n</div></td><td><a href=\"https://acsjournals.onlinelibrary.wiley.com/doi/full/10.3322/canjclin.57.2.75\">https://acsjournals.onlinelibrary.wiley.com/doi/full/10.3322/canjclin.57.2.75</a></td></tr></table><p><b>timing</b>: Events: 2011-01-01 , Once per 1 year</p><p><b>resource</b>: <a href=\"Bundle-PrimaryScreeningDecision_eve-atypicalbx__eve-highlifetimerisk__act-acshighriskmammo__act-acshighriskmri.html#ServiceRequest_153\">Bundle: type = collection</a></p></blockquote><blockquote><p><b>action</b></p><blockquote><p><b>id</b></p>USPSTFRecommendation</blockquote><p><b>Recommendation Flag Extension</b>: <span title=\"Codes:{http://cancerscreeningcds.github.io/bcsm-cds/CodeSystem/recommendation-flag-code-system overdue}\">Overdue</span></p><p><b>title</b>: Biennial screening mammo starting age 40</p><p><b>description</b>: Biennial screening mammogram starting at age 40</p><p><b>code</b>: <span title=\"Codes:{http://loinc.org 24606-6}\">MG Breast Screening</span></p><h3>Documentations</h3><table class=\"grid\"><tr><td style=\"display: none\">-</td><td><b>Type</b></td><td><b>Label</b></td><td><b>Display</b></td><td><b>Citation</b></td><td><b>Url</b></td></tr><tr><td style=\"display: none\">*</td><td>Citation</td><td>USPSTF</td><td>Screening for Breast Cancer: US Preventive Services Task Force Recommendation Statement</td><td><div><p>US Preventive Services Task Force. Screening for Breast Cancer: US Preventive Services Task Force Recommendation Statement. JAMA. Published online April 30, 2024.</p>\n</div></td><td><a href=\"https://www.uspreventiveservicestaskforce.org/uspstf/recommendation/breast-cancer-screening\">https://www.uspreventiveservicestaskforce.org/uspstf/recommendation/breast-cancer-screening</a></td></tr></table><p><b>timing</b>: Events: 2021-01-01 , Once per 2 years</p><p><b>resource</b>: <a href=\"Bundle-PrimaryScreeningDecision_eve-atypicalbx__eve-highlifetimerisk__act-acshighriskmammo__act-acshighriskmri.html#ServiceRequest_154\">Bundle: type = collection</a></p></blockquote></div>"
      },
      "instantiatesCanonical" : ["http://cancerscreeningcds.github.io/bcsm-cds/PlanDefinition/PrimaryScreeningDecision"],
      "status" : "draft",
      "intent" : "proposal",
      "subject" : {
        "reference" : "Patient/defaultPatient",
        "display" : "Jane Doe"
      },
      "action" : [{
        "id" : "ACSMammoAtypicalBiopsy",
        "extension" : [{
          "url" : "http://cancerscreeningcds.github.io/bcsm-cds/StructureDefinition/csm-recommendation-flag",
          "valueCodeableConcept" : {
            "coding" : [{
              "system" : "http://cancerscreeningcds.github.io/bcsm-cds/CodeSystem/recommendation-flag-code-system",
              "code" : "overdue",
              "display" : "Overdue"
            }]
          }
        }],
        "title" : "Annual screening mammogram starting age 30",
        "description" : "An annual screening mammogram starting at age 30 is recommended.\n\nWomen who are at higher than average risk for breast cancer based on past atypical biopsy should get a mammogram every year, typically starting at age 30.\n",
        "code" : [{
          "coding" : [{
            "system" : "http://loinc.org",
            "code" : "24606-6",
            "display" : "MG Breast Screening"
          }]
        }],
        "documentation" : [{
          "type" : "citation",
          "label" : "ACS",
          "display" : "American Cancer Society Recommendations for the Early Detection of Breast Cancer",
          "url" : "https://www.cancer.org/cancer/types/breast-cancer/screening-tests-and-early-detection/american-cancer-society-recommendations-for-the-early-detection-of-breast-cancer.html"
        }],
        "timingTiming" : {
          "event" : ["2024-01-01"],
          "repeat" : {
            "boundsPeriod" : {
              "start" : "2024-01-01"
            },
            "frequency" : 1,
            "period" : 1,
            "periodUnit" : "a"
          }
        },
        "resource" : {
          "reference" : "ServiceRequest/150"
        }
      },
      {
        "id" : "ACSMriAtypicalBiopsyHighRisk",
        "extension" : [{
          "url" : "http://cancerscreeningcds.github.io/bcsm-cds/StructureDefinition/csm-recommendation-flag",
          "valueCodeableConcept" : {
            "coding" : [{
              "system" : "http://cancerscreeningcds.github.io/bcsm-cds/CodeSystem/recommendation-flag-code-system",
              "code" : "overdue",
              "display" : "Overdue"
            }]
          }
        }],
        "title" : "Annual screening MRI starting age 30",
        "description" : "An annual screening MRI starting at age 30 is recommended in patients with past atypical biopsy and lifetime risk > 20-25%.",
        "code" : [{
          "coding" : [{
            "system" : "http://loinc.org",
            "code" : "30794-2",
            "display" : "MR Breast"
          }]
        }],
        "documentation" : [{
          "type" : "citation",
          "label" : "ACS",
          "display" : "American Cancer Society Guidelines for Breast Screening with MRI as an Adjunct to Mammography",
          "citation" : "Oeffinger KC, Fontham ETH, Etzioni R, et al. Breast Cancer Screening for Women at Average Risk: 2015 Guideline Update From the American Cancer Society. JAMA. 2015;314(15):1599–1614.",
          "url" : "https://acsjournals.onlinelibrary.wiley.com/doi/full/10.3322/canjclin.57.2.75"
        }],
        "timingTiming" : {
          "event" : ["2024-01-01"],
          "repeat" : {
            "boundsPeriod" : {
              "start" : "2024-01-01"
            },
            "frequency" : 1,
            "period" : 1,
            "periodUnit" : "a"
          }
        },
        "resource" : {
          "reference" : "ServiceRequest/151"
        }
      },
      {
        "id" : "ACSMammoHighRisk",
        "extension" : [{
          "url" : "http://cancerscreeningcds.github.io/bcsm-cds/StructureDefinition/csm-recommendation-flag",
          "valueCodeableConcept" : {
            "coding" : [{
              "system" : "http://cancerscreeningcds.github.io/bcsm-cds/CodeSystem/recommendation-flag-code-system",
              "code" : "overdue",
              "display" : "Overdue"
            }]
          }
        }],
        "title" : "Annual screening mammogram starting age 30",
        "description" : "An annual screening mammogram starting at age 30 is recommended.\n\nWomen who are at higher than average risk for breast cancer based on certain risk factors should get a mammogram every year, typically starting at age 30.",
        "code" : [{
          "coding" : [{
            "system" : "http://loinc.org",
            "code" : "24606-6",
            "display" : "MG Breast Screening"
          }]
        }],
        "documentation" : [{
          "type" : "citation",
          "label" : "ACS",
          "display" : "American Cancer Society Recommendations for the Early Detection of Breast Cancer",
          "url" : "https://www.cancer.org/cancer/types/breast-cancer/screening-tests-and-early-detection/american-cancer-society-recommendations-for-the-early-detection-of-breast-cancer.html"
        }],
        "timingTiming" : {
          "event" : ["2011-01-01"],
          "repeat" : {
            "boundsPeriod" : {
              "start" : "2011-01-01"
            },
            "frequency" : 1,
            "period" : 1,
            "periodUnit" : "a"
          }
        },
        "resource" : {
          "reference" : "ServiceRequest/152"
        }
      },
      {
        "id" : "ACSMriHighRisk",
        "extension" : [{
          "url" : "http://cancerscreeningcds.github.io/bcsm-cds/StructureDefinition/csm-recommendation-flag",
          "valueCodeableConcept" : {
            "coding" : [{
              "system" : "http://cancerscreeningcds.github.io/bcsm-cds/CodeSystem/recommendation-flag-code-system",
              "code" : "overdue",
              "display" : "Overdue"
            }]
          }
        }],
        "title" : "Annual screening MRI starting age 30",
        "description" : "An annual screening MRI starting at age 30 is recommended.\n\nWomen who are at higher than average risk for breast cancer based on certain risk factors should get a breast MRI every year, typically starting at age 30.",
        "code" : [{
          "coding" : [{
            "system" : "http://loinc.org",
            "code" : "30794-2",
            "display" : "MR Breast"
          }]
        }],
        "documentation" : [{
          "type" : "citation",
          "label" : "ACS",
          "display" : "American Cancer Society Guidelines for Breast Screening with MRI as an Adjunct to Mammography",
          "citation" : "Oeffinger KC, Fontham ETH, Etzioni R, et al. Breast Cancer Screening for Women at Average Risk: 2015 Guideline Update From the American Cancer Society. JAMA. 2015;314(15):1599–1614.",
          "url" : "https://acsjournals.onlinelibrary.wiley.com/doi/full/10.3322/canjclin.57.2.75"
        }],
        "timingTiming" : {
          "event" : ["2011-01-01"],
          "repeat" : {
            "boundsPeriod" : {
              "start" : "2011-01-01"
            },
            "frequency" : 1,
            "period" : 1,
            "periodUnit" : "a"
          }
        },
        "resource" : {
          "reference" : "ServiceRequest/153"
        }
      },
      {
        "id" : "USPSTFRecommendation",
        "extension" : [{
          "url" : "http://cancerscreeningcds.github.io/bcsm-cds/StructureDefinition/csm-recommendation-flag",
          "valueCodeableConcept" : {
            "coding" : [{
              "system" : "http://cancerscreeningcds.github.io/bcsm-cds/CodeSystem/recommendation-flag-code-system",
              "code" : "overdue",
              "display" : "Overdue"
            }]
          }
        }],
        "title" : "Biennial screening mammo starting age 40",
        "description" : "Biennial screening mammogram starting at age 40",
        "code" : [{
          "coding" : [{
            "system" : "http://loinc.org",
            "code" : "24606-6",
            "display" : "MG Breast Screening"
          }]
        }],
        "documentation" : [{
          "type" : "citation",
          "label" : "USPSTF",
          "display" : "Screening for Breast Cancer: US Preventive Services Task Force Recommendation Statement",
          "citation" : "US Preventive Services Task Force. Screening for Breast Cancer: US Preventive Services Task Force Recommendation Statement. JAMA. Published online April 30, 2024.",
          "url" : "https://www.uspreventiveservicestaskforce.org/uspstf/recommendation/breast-cancer-screening"
        }],
        "timingTiming" : {
          "event" : ["2021-01-01"],
          "repeat" : {
            "boundsPeriod" : {
              "start" : "2021-01-01"
            },
            "frequency" : 1,
            "period" : 2,
            "periodUnit" : "a"
          }
        },
        "resource" : {
          "reference" : "ServiceRequest/154"
        }
      }]
    }
  },
  {
    "fullUrl" : "http://cancerscreeningcds.github.io/bcsm-cds/ServiceRequest/150",
    "resource" : {
      "resourceType" : "ServiceRequest",
      "id" : "150",
      "text" : {
        "status" : "generated",
        "div" : "<div xmlns=\"http://www.w3.org/1999/xhtml\"><a name=\"ServiceRequest_150\"> </a><p class=\"res-header-id\"><b>Generated Narrative: ServiceRequest 150</b></p><a name=\"150\"> </a><a name=\"hc150\"> </a><a name=\"150-en-US\"> </a><p><b>basedOn</b>: <a href=\"ActivityDefinition-BreastCancerScreeningServiceRequest.html\">Breast Cancer Screening Service Request</a></p><p><b>status</b>: option</p><p><b>intent</b>: Proposal</p><p><b>code</b>: <span title=\"Codes:{http://loinc.org 24606-6}\">MG Breast Screening</span></p><p><b>subject</b>: <a href=\"Bundle-eve-Age45to54_act-acsavgrecs45_act-uspstfavgrecs.html#Patient_defaultPatient\">Jane Doe</a></p><p><b>occurrence</b>: 2024-01-01</p><p><b>reasonCode</b>: <span title=\"Codes:{http://cancerscreeningcds.github.io/bcsm-cds/CodeSystem/screening-observation-code-system atypicalbx}\">Atypical biopsy</span></p></div>"
      },
      "basedOn" : [{
        "reference" : "http://cancerscreeningcds.github.io/bcsm-cds/ActivityDefinition/BreastCancerScreeningServiceRequest"
      }],
      "status" : "option",
      "intent" : "proposal",
      "code" : {
        "coding" : [{
          "system" : "http://loinc.org",
          "code" : "24606-6",
          "display" : "MG Breast Screening"
        }]
      },
      "subject" : {
        "reference" : "Patient/defaultPatient",
        "display" : "Jane Doe"
      },
      "occurrenceDateTime" : "2024-01-01",
      "reasonCode" : [{
        "coding" : [{
          "system" : "http://cancerscreeningcds.github.io/bcsm-cds/CodeSystem/screening-observation-code-system",
          "code" : "atypicalbx",
          "display" : "Atypical biopsy"
        }]
      }]
    }
  },
  {
    "fullUrl" : "http://cancerscreeningcds.github.io/bcsm-cds/ServiceRequest/151",
    "resource" : {
      "resourceType" : "ServiceRequest",
      "id" : "151",
      "text" : {
        "status" : "generated",
        "div" : "<div xmlns=\"http://www.w3.org/1999/xhtml\"><a name=\"ServiceRequest_151\"> </a><p class=\"res-header-id\"><b>Generated Narrative: ServiceRequest 151</b></p><a name=\"151\"> </a><a name=\"hc151\"> </a><a name=\"151-en-US\"> </a><p><b>basedOn</b>: <a href=\"ActivityDefinition-BreastCancerScreeningServiceRequest.html\">Breast Cancer Screening Service Request</a></p><p><b>status</b>: option</p><p><b>intent</b>: Proposal</p><p><b>code</b>: <span title=\"Codes:{http://loinc.org 30794-2}\">MR Breast</span></p><p><b>subject</b>: <a href=\"Bundle-eve-Age45to54_act-acsavgrecs45_act-uspstfavgrecs.html#Patient_defaultPatient\">Jane Doe</a></p><p><b>occurrence</b>: 2024-01-01</p><p><b>reasonCode</b>: <span title=\"Codes:{http://cancerscreeningcds.github.io/bcsm-cds/CodeSystem/screening-observation-code-system atypicalbxhighlifetimerisk}\">Atypical biopsy high lifetime risk</span></p></div>"
      },
      "basedOn" : [{
        "reference" : "http://cancerscreeningcds.github.io/bcsm-cds/ActivityDefinition/BreastCancerScreeningServiceRequest"
      }],
      "status" : "option",
      "intent" : "proposal",
      "code" : {
        "coding" : [{
          "system" : "http://loinc.org",
          "code" : "30794-2",
          "display" : "MR Breast"
        }]
      },
      "subject" : {
        "reference" : "Patient/defaultPatient",
        "display" : "Jane Doe"
      },
      "occurrenceDateTime" : "2024-01-01",
      "reasonCode" : [{
        "coding" : [{
          "system" : "http://cancerscreeningcds.github.io/bcsm-cds/CodeSystem/screening-observation-code-system",
          "code" : "atypicalbxhighlifetimerisk",
          "display" : "Atypical biopsy high lifetime risk"
        }]
      }]
    }
  },
  {
    "fullUrl" : "http://cancerscreeningcds.github.io/bcsm-cds/ServiceRequest/152",
    "resource" : {
      "resourceType" : "ServiceRequest",
      "id" : "152",
      "text" : {
        "status" : "generated",
        "div" : "<div xmlns=\"http://www.w3.org/1999/xhtml\"><a name=\"ServiceRequest_152\"> </a><p class=\"res-header-id\"><b>Generated Narrative: ServiceRequest 152</b></p><a name=\"152\"> </a><a name=\"hc152\"> </a><a name=\"152-en-US\"> </a><p><b>basedOn</b>: <a href=\"ActivityDefinition-BreastCancerScreeningServiceRequest.html\">Breast Cancer Screening Service Request</a></p><p><b>status</b>: option</p><p><b>intent</b>: Proposal</p><p><b>code</b>: <span title=\"Codes:{http://loinc.org 24606-6}\">MG Breast Screening</span></p><p><b>subject</b>: <a href=\"Bundle-eve-Age45to54_act-acsavgrecs45_act-uspstfavgrecs.html#Patient_defaultPatient\">Jane Doe</a></p><p><b>occurrence</b>: 2011-01-01</p><p><b>reasonCode</b>: <span title=\"Codes:{http://cancerscreeningcds.github.io/bcsm-cds/CodeSystem/screening-observation-code-system highlifetimerisk}\">High lifetime risk</span></p></div>"
      },
      "basedOn" : [{
        "reference" : "http://cancerscreeningcds.github.io/bcsm-cds/ActivityDefinition/BreastCancerScreeningServiceRequest"
      }],
      "status" : "option",
      "intent" : "proposal",
      "code" : {
        "coding" : [{
          "system" : "http://loinc.org",
          "code" : "24606-6",
          "display" : "MG Breast Screening"
        }]
      },
      "subject" : {
        "reference" : "Patient/defaultPatient",
        "display" : "Jane Doe"
      },
      "occurrenceDateTime" : "2011-01-01",
      "reasonCode" : [{
        "coding" : [{
          "system" : "http://cancerscreeningcds.github.io/bcsm-cds/CodeSystem/screening-observation-code-system",
          "code" : "highlifetimerisk",
          "display" : "High lifetime risk"
        }]
      }]
    }
  },
  {
    "fullUrl" : "http://cancerscreeningcds.github.io/bcsm-cds/ServiceRequest/153",
    "resource" : {
      "resourceType" : "ServiceRequest",
      "id" : "153",
      "text" : {
        "status" : "generated",
        "div" : "<div xmlns=\"http://www.w3.org/1999/xhtml\"><a name=\"ServiceRequest_153\"> </a><p class=\"res-header-id\"><b>Generated Narrative: ServiceRequest 153</b></p><a name=\"153\"> </a><a name=\"hc153\"> </a><a name=\"153-en-US\"> </a><p><b>basedOn</b>: <a href=\"ActivityDefinition-BreastCancerScreeningServiceRequest.html\">Breast Cancer Screening Service Request</a></p><p><b>status</b>: option</p><p><b>intent</b>: Proposal</p><p><b>code</b>: <span title=\"Codes:{http://loinc.org 30794-2}\">MR Breast</span></p><p><b>subject</b>: <a href=\"Bundle-eve-Age45to54_act-acsavgrecs45_act-uspstfavgrecs.html#Patient_defaultPatient\">Jane Doe</a></p><p><b>occurrence</b>: 2011-01-01</p><p><b>reasonCode</b>: <span title=\"Codes:{http://cancerscreeningcds.github.io/bcsm-cds/CodeSystem/screening-observation-code-system highlifetimerisk}\">High lifetime risk</span></p></div>"
      },
      "basedOn" : [{
        "reference" : "http://cancerscreeningcds.github.io/bcsm-cds/ActivityDefinition/BreastCancerScreeningServiceRequest"
      }],
      "status" : "option",
      "intent" : "proposal",
      "code" : {
        "coding" : [{
          "system" : "http://loinc.org",
          "code" : "30794-2",
          "display" : "MR Breast"
        }]
      },
      "subject" : {
        "reference" : "Patient/defaultPatient",
        "display" : "Jane Doe"
      },
      "occurrenceDateTime" : "2011-01-01",
      "reasonCode" : [{
        "coding" : [{
          "system" : "http://cancerscreeningcds.github.io/bcsm-cds/CodeSystem/screening-observation-code-system",
          "code" : "highlifetimerisk",
          "display" : "High lifetime risk"
        }]
      }]
    }
  },
  {
    "fullUrl" : "http://cancerscreeningcds.github.io/bcsm-cds/ServiceRequest/154",
    "resource" : {
      "resourceType" : "ServiceRequest",
      "id" : "154",
      "text" : {
        "status" : "generated",
        "div" : "<div xmlns=\"http://www.w3.org/1999/xhtml\"><a name=\"ServiceRequest_154\"> </a><p class=\"res-header-id\"><b>Generated Narrative: ServiceRequest 154</b></p><a name=\"154\"> </a><a name=\"hc154\"> </a><a name=\"154-en-US\"> </a><p><b>basedOn</b>: <a href=\"ActivityDefinition-BreastCancerScreeningServiceRequest.html\">Breast Cancer Screening Service Request</a></p><p><b>status</b>: option</p><p><b>intent</b>: Proposal</p><p><b>code</b>: <span title=\"Codes:{http://loinc.org 24606-6}\">MG Breast Screening</span></p><p><b>subject</b>: <a href=\"Bundle-eve-Age45to54_act-acsavgrecs45_act-uspstfavgrecs.html#Patient_defaultPatient\">Jane Doe</a></p><p><b>occurrence</b>: 2021-01-01</p><p><b>reasonCode</b>: <span title=\"Codes:{http://cancerscreeningcds.github.io/bcsm-cds/CodeSystem/screening-observation-code-system USPSTFaveragerisk}\">USPSTF average risk</span></p></div>"
      },
      "basedOn" : [{
        "reference" : "http://cancerscreeningcds.github.io/bcsm-cds/ActivityDefinition/BreastCancerScreeningServiceRequest"
      }],
      "status" : "option",
      "intent" : "proposal",
      "code" : {
        "coding" : [{
          "system" : "http://loinc.org",
          "code" : "24606-6",
          "display" : "MG Breast Screening"
        }]
      },
      "subject" : {
        "reference" : "Patient/defaultPatient",
        "display" : "Jane Doe"
      },
      "occurrenceDateTime" : "2021-01-01",
      "reasonCode" : [{
        "coding" : [{
          "system" : "http://cancerscreeningcds.github.io/bcsm-cds/CodeSystem/screening-observation-code-system",
          "code" : "USPSTFaveragerisk",
          "display" : "USPSTF average risk"
        }]
      }]
    }
  }]
}