<?xml version="1.0" encoding="UTF-8"?>

<Bundle xmlns="http://hl7.org/fhir">
  <id value="FollowupScreeningResult_eve-biradsscore_bi-rads_4_or_5_act-biopsy"/>
  <type value="collection"/>
  <entry>
    <fullUrl value="http://cancerscreeningcds.github.io/bcsm-cds/CarePlan/360"/>
    <resource>
      <CarePlan>
        <id value="360"/>
        <text>
          <status value="generated"/><div xmlns="http://www.w3.org/1999/xhtml"><a name="CarePlan_360"> </a><p class="res-header-id"><b>Generated Narrative: CarePlan 360</b></p><a name="360"> </a><a name="hc360"> </a><a name="360-en-US"> </a><p><b>instantiatesCanonical</b>: <a href="PlanDefinition-flow-FollowupScreeningResult.html">Followup Screening Result</a></p><p><b>status</b>: Draft</p><p><b>intent</b>: Proposal</p><p><b>subject</b>: <a href="Bundle-eve-Age45to54_act-acsavgrecs45_act-uspstfavgrecs.html#Patient_defaultPatient">Jane Doe</a></p><p><b>created</b>: 2024-12-10 00:00:00+0000</p><h3>Activities</h3><table class="grid"><tr><td style="display: none">-</td><td><b>Reference</b></td></tr><tr><td style="display: none">*</td><td><a href="Bundle-FollowupScreeningResult_eve-biradsscore_bi-rads_4_or_5_act-biopsy.html#RequestGroup_361">Bundle: type = collection</a></td></tr></table></div>
        </text>
        <instantiatesCanonical value="http://cancerscreeningcds.github.io/bcsm-cds/PlanDefinition/flow-FollowupScreeningResult"/>
        <status value="draft"/>
        <intent value="proposal"/>
        <subject>
          <reference value="Patient/defaultPatient"/>
          <display value="Jane Doe"/>
        </subject>
        <created value="2024-12-10T00:00:00.0Z"/>
        <activity>
          <reference>
            <reference value="RequestGroup/361"/>
          </reference>
        </activity>
      </CarePlan>
    </resource>
  </entry>
  <entry>
    <fullUrl value="http://cancerscreeningcds.github.io/bcsm-cds/RequestGroup/361"/>
    <resource>
      <RequestGroup>
        <id value="361"/>
        <text>
          <status value="extensions"/><div xmlns="http://www.w3.org/1999/xhtml"><a name="RequestGroup_361"> </a><p class="res-header-id"><b>Generated Narrative: RequestGroup 361</b></p><a name="361"> </a><a name="hc361"> </a><a name="361-en-US"> </a><p><b>instantiatesCanonical</b>: <a href="PlanDefinition-flow-FollowupScreeningResult.html">Followup Screening Result</a></p><p><b>status</b>: Draft</p><p><b>intent</b>: Proposal</p><p><b>subject</b>: <a href="Bundle-eve-Age45to54_act-acsavgrecs45_act-uspstfavgrecs.html#Patient_defaultPatient">Jane Doe</a></p><blockquote><p><b>action</b></p><blockquote><p><b>id</b></p>FollowupBirads4Or5Result</blockquote><p><b>Recommendation Flag Extension</b>: <span title="Codes:{http://cancerscreeningcds.github.io/bcsm-cds/CodeSystem/recommendation-flag-code-system due}">Due</span></p><p><b>title</b>: Refer for breast biopsy</p><p><b>description</b>: Refer for breast biopsy.

Initial modality will typically be image-guided core needle biopsy (guided by mammography, ultrasound, or MRI). In certain conditions, an initial excisional biopsy may be preferable. These may include lesions anatomically unsuitable for needle biopsy or patient anatomic considerations. Refer to resulting Radiologist for recommendations.

In imaging findings that have previously been biopsied and found to be benign, consider referral for excisional biopsy if there have been suspicious interval changes in the lesion.</p><p><b>code</b>: <span title="Codes:{http://cancerscreeningcds.github.io/bcsm-cds/CodeSystem/plan-definition-action-code-system breastbiopsy}">Breast biopsy</span></p><h3>Documentations</h3><table class="grid"><tr><td style="display: none">-</td><td><b>Type</b></td><td><b>Label</b></td><td><b>Display</b></td><td><b>Citation</b></td><td><b>Url</b></td></tr><tr><td style="display: none">*</td><td>Documentation</td><td>ACR</td><td>ACR BI-RADS Atlas Excerpt: Mammography Reporting System</td><td><div><p>American College of Radiology. ACR BI-RADS Atlas: Breast Imaging Reporting and Data System. 5th ed., American College of Radiology, 2013.</p>
</div></td><td><a href="https://edge.sitecorecloud.io/americancoldf5f-acrorgf92a-productioncb02-3650/media/ACR/Files/RADS/BI-RADS/Mammography-Reporting.pdf">https://edge.sitecorecloud.io/americancoldf5f-acrorgf92a-productioncb02-3650/media/ACR/Files/RADS/BI-RADS/Mammography-Reporting.pdf</a></td></tr><tr><td style="display: none">*</td><td>Documentation</td><td>ACR</td><td>ACR BI-RADS Atlas Excerpt: MRI Reporting System</td><td><div><p>American College of Radiology. ACR BI-RADS Atlas: Breast Imaging Reporting and Data System. 5th ed., American College of Radiology, 2013.</p>
</div></td><td><a href="https://edge.sitecorecloud.io/americancoldf5f-acrorgf92a-productioncb02-3650/media/ACR/Files/RADS/BI-RADS/Breast-MRI-Reporting.pdf">https://edge.sitecorecloud.io/americancoldf5f-acrorgf92a-productioncb02-3650/media/ACR/Files/RADS/BI-RADS/Breast-MRI-Reporting.pdf</a></td></tr><tr><td style="display: none">*</td><td>Documentation</td><td>ACR</td><td>ACR BI-RADS Atlas Excerpt: Ultrasound Reporting System</td><td><div><p>American College of Radiology. ACR BI-RADS Atlas: Breast Imaging Reporting and Data System. 5th ed., American College of Radiology, 2013.</p>
</div></td><td><a href="https://edge.sitecorecloud.io/americancoldf5f-acrorgf92a-productioncb02-3650/media/ACR/Files/RADS/BI-RADS/Breast-Ultrasound-Reporting.pdf">https://edge.sitecorecloud.io/americancoldf5f-acrorgf92a-productioncb02-3650/media/ACR/Files/RADS/BI-RADS/Breast-Ultrasound-Reporting.pdf</a></td></tr><tr><td style="display: none">*</td><td>Citation</td><td>ASBrS</td><td>The American Society of Breast Surgeons Resource Guide: Excisional Breast Biopsy (Nov 2014)</td><td> </td><td><a href="https://www.breastsurgeons.org/docs/statements/asbrs-rg-excisional-breast-biopsy.pdf">https://www.breastsurgeons.org/docs/statements/asbrs-rg-excisional-breast-biopsy.pdf</a></td></tr></table><p><b>timing</b>: Events: 2024-10-01 10:00:00+0000 </p><p><b>resource</b>: <a href="Bundle-FollowupScreeningResult_eve-biradsscore_bi-rads_4_or_5_act-biopsy.html#ServiceRequest_362">Bundle: type = collection</a></p></blockquote></div>
        </text>
        <instantiatesCanonical value="http://cancerscreeningcds.github.io/bcsm-cds/PlanDefinition/flow-FollowupScreeningResult"/>
        <status value="draft"/>
        <intent value="proposal"/>
        <subject>
          <reference value="Patient/defaultPatient"/>
          <display value="Jane Doe"/>
        </subject>
        <action id="FollowupBirads4Or5Result">
          <extension url="http://cancerscreeningcds.github.io/bcsm-cds/StructureDefinition/csm-recommendation-flag">
            <valueCodeableConcept>
              <coding>
                <system value="http://cancerscreeningcds.github.io/bcsm-cds/CodeSystem/recommendation-flag-code-system"/>
                <code value="due"/>
                <display value="Due"/>
              </coding>
            </valueCodeableConcept>
          </extension>
          <title value="Refer for breast biopsy"/>
          <description value="Refer for breast biopsy.&#xA;&#xA;Initial modality will typically be image-guided core needle biopsy (guided by mammography, ultrasound, or MRI). In certain conditions, an initial excisional biopsy may be preferable. These may include lesions anatomically unsuitable for needle biopsy or patient anatomic considerations. Refer to resulting Radiologist for recommendations.&#xA;&#xA;In imaging findings that have previously been biopsied and found to be benign, consider referral for excisional biopsy if there have been suspicious interval changes in the lesion."/>
          <code>
            <coding>
              <system value="http://cancerscreeningcds.github.io/bcsm-cds/CodeSystem/plan-definition-action-code-system"/>
              <code value="breastbiopsy"/>
              <display value="Breast biopsy"/>
            </coding>
          </code>
          <documentation>
            <type value="documentation"/>
            <label value="ACR"/>
            <display value="ACR BI-RADS Atlas Excerpt: Mammography Reporting System"/>
            <citation value="American College of Radiology. ACR BI-RADS Atlas: Breast Imaging Reporting and Data System. 5th ed., American College of Radiology, 2013."/>
            <url value="https://edge.sitecorecloud.io/americancoldf5f-acrorgf92a-productioncb02-3650/media/ACR/Files/RADS/BI-RADS/Mammography-Reporting.pdf"/>
          </documentation>
          <documentation>
            <type value="documentation"/>
            <label value="ACR"/>
            <display value="ACR BI-RADS Atlas Excerpt: MRI Reporting System"/>
            <citation value="American College of Radiology. ACR BI-RADS Atlas: Breast Imaging Reporting and Data System. 5th ed., American College of Radiology, 2013."/>
            <url value="https://edge.sitecorecloud.io/americancoldf5f-acrorgf92a-productioncb02-3650/media/ACR/Files/RADS/BI-RADS/Breast-MRI-Reporting.pdf"/>
          </documentation>
          <documentation>
            <type value="documentation"/>
            <label value="ACR"/>
            <display value="ACR BI-RADS Atlas Excerpt: Ultrasound Reporting System"/>
            <citation value="American College of Radiology. ACR BI-RADS Atlas: Breast Imaging Reporting and Data System. 5th ed., American College of Radiology, 2013."/>
            <url value="https://edge.sitecorecloud.io/americancoldf5f-acrorgf92a-productioncb02-3650/media/ACR/Files/RADS/BI-RADS/Breast-Ultrasound-Reporting.pdf"/>
          </documentation>
          <documentation>
            <type value="citation"/>
            <label value="ASBrS"/>
            <display value="The American Society of Breast Surgeons Resource Guide: Excisional Breast Biopsy (Nov 2014)"/>
            <url value="https://www.breastsurgeons.org/docs/statements/asbrs-rg-excisional-breast-biopsy.pdf"/>
          </documentation>
          <timingTiming>
            <event value="2024-10-01T10:00:00.000+00:00"/>
          </timingTiming>
          <resource>
            <reference value="ServiceRequest/362"/>
          </resource>
        </action>
      </RequestGroup>
    </resource>
  </entry>
  <entry>
    <fullUrl value="http://cancerscreeningcds.github.io/bcsm-cds/ServiceRequest/362"/>
    <resource>
      <ServiceRequest>
        <id value="362"/>
        <text>
          <status value="generated"/><div xmlns="http://www.w3.org/1999/xhtml"><a name="ServiceRequest_362"> </a><p class="res-header-id"><b>Generated Narrative: ServiceRequest 362</b></p><a name="362"> </a><a name="hc362"> </a><a name="362-en-US"> </a><p><b>basedOn</b>: <a href="ActivityDefinition-BreastCancerScreeningServiceRequest.html">Breast Cancer Screening Service Request</a></p><p><b>status</b>: option</p><p><b>intent</b>: Proposal</p><p><b>code</b>: <span title="Codes:{http://cancerscreeningcds.github.io/bcsm-cds/CodeSystem/plan-definition-action-code-system breastbiopsy}">Breast biopsy</span></p><p><b>subject</b>: <a href="Bundle-eve-Age45to54_act-acsavgrecs45_act-uspstfavgrecs.html#Patient_defaultPatient">Jane Doe</a></p><p><b>occurrence</b>: 2024-10-01 10:00:00+0000</p><p><b>reasonCode</b>: <span title="Codes:{http://snomed.info/sct 397144001}">Mammography assessment (Category 4) - Suspicious abnormality, biopsy should be considered (finding)</span></p></div>
        </text>
        <basedOn>
          <reference value="http://cancerscreeningcds.github.io/bcsm-cds/ActivityDefinition/BreastCancerScreeningServiceRequest"/>
        </basedOn>
        <status value="option"/>
        <intent value="proposal"/>
        <code>
          <coding>
            <system value="http://cancerscreeningcds.github.io/bcsm-cds/CodeSystem/plan-definition-action-code-system"/>
            <code value="breastbiopsy"/>
            <display value="Breast biopsy"/>
          </coding>
        </code>
        <subject>
          <reference value="Patient/defaultPatient"/>
          <display value="Jane Doe"/>
        </subject>
        <occurrenceDateTime value="2024-10-01T10:00:00.000+00:00"/>
        <reasonCode>
          <coding>
            <system value="http://snomed.info/sct"/>
            <code value="397144001"/>
            <display value="Mammography assessment (Category 4) - Suspicious abnormality, biopsy should be considered (finding)"/>
          </coding>
        </reasonCode>
      </ServiceRequest>
    </resource>
  </entry>
</Bundle>