{
  "resourceType" : "Bundle",
  "id" : "HighRiskExclusions_act-hxbreastcawithin5y",
  "type" : "collection",
  "entry" : [{
    "fullUrl" : "http://cancerscreeningcds.github.io/bcsm-cds/CarePlan/414",
    "resource" : {
      "resourceType" : "CarePlan",
      "id" : "414",
      "text" : {
        "status" : "generated",
        "div" : "<div xmlns=\"http://www.w3.org/1999/xhtml\"><a name=\"CarePlan_414\"> </a><p class=\"res-header-id\"><b>Generated Narrative: CarePlan 414</b></p><a name=\"414\"> </a><a name=\"hc414\"> </a><a name=\"414-en-US\"> </a><p><b>instantiatesCanonical</b>: <a href=\"PlanDefinition-flow-HighRiskExclusions.html\">High Risk Exclusions</a></p><p><b>status</b>: Draft</p><p><b>intent</b>: Proposal</p><p><b>subject</b>: <a href=\"Bundle-eve-Age45to54_act-acsavgrecs45_act-uspstfavgrecs.html#Patient_defaultPatient\">Jane Doe</a></p><p><b>created</b>: 2024-12-10 00:00:00+0000</p><h3>Activities</h3><table class=\"grid\"><tr><td style=\"display: none\">-</td><td><b>Reference</b></td></tr><tr><td style=\"display: none\">*</td><td><a href=\"Bundle-HighRiskExclusions_act-hxbreastcawithin5y.html#RequestGroup_415\">Bundle: type = collection</a></td></tr></table></div>"
      },
      "instantiatesCanonical" : ["http://cancerscreeningcds.github.io/bcsm-cds/PlanDefinition/flow-HighRiskExclusions"],
      "status" : "draft",
      "intent" : "proposal",
      "subject" : {
        "reference" : "Patient/defaultPatient",
        "display" : "Jane Doe"
      },
      "created" : "2024-12-10T00:00:00.0Z",
      "activity" : [{
        "reference" : {
          "reference" : "RequestGroup/415"
        }
      }]
    }
  },
  {
    "fullUrl" : "http://cancerscreeningcds.github.io/bcsm-cds/RequestGroup/415",
    "resource" : {
      "resourceType" : "RequestGroup",
      "id" : "415",
      "text" : {
        "status" : "generated",
        "div" : "<div xmlns=\"http://www.w3.org/1999/xhtml\"><a name=\"RequestGroup_415\"> </a><p class=\"res-header-id\"><b>Generated Narrative: RequestGroup 415</b></p><a name=\"415\"> </a><a name=\"hc415\"> </a><a name=\"415-en-US\"> </a><p><b>instantiatesCanonical</b>: <a href=\"PlanDefinition-flow-HighRiskExclusions.html\">High Risk Exclusions</a></p><p><b>status</b>: Draft</p><p><b>intent</b>: Proposal</p><p><b>subject</b>: <a href=\"Bundle-eve-Age45to54_act-acsavgrecs45_act-uspstfavgrecs.html#Patient_defaultPatient\">Jane Doe</a></p><blockquote><p><b>action</b></p><blockquote><p><b>id</b></p>SpecialtyReferralBreastCaWithin5y</blockquote><p><b>title</b>: Refer to Oncologic care plan</p><p><b>description</b>: Previous breast cancer within 5 years may require enhanced surveillance including diagnostic mammogram. \n\nRefer to patient's Oncologic treatment team or Survivorship Care Plan for patient specific guidance.</p><p><b>code</b>: <span title=\"Codes:{http://cancerscreeningcds.github.io/bcsm-cds/CodeSystem/plan-definition-action-code-system specialtyreferral}\">Refer to specialist recommendations</span></p><p><b>resource</b>: <a href=\"Bundle-HighRiskExclusions_act-hxbreastcawithin5y.html#ServiceRequest_416\">Bundle: type = collection</a></p></blockquote></div>"
      },
      "instantiatesCanonical" : ["http://cancerscreeningcds.github.io/bcsm-cds/PlanDefinition/flow-HighRiskExclusions"],
      "status" : "draft",
      "intent" : "proposal",
      "subject" : {
        "reference" : "Patient/defaultPatient",
        "display" : "Jane Doe"
      },
      "action" : [{
        "id" : "SpecialtyReferralBreastCaWithin5y",
        "title" : "Refer to Oncologic care plan",
        "description" : "Previous breast cancer within 5 years may require enhanced surveillance including diagnostic mammogram. \n\nRefer to patient's Oncologic treatment team or Survivorship Care Plan for patient specific guidance.",
        "code" : [{
          "coding" : [{
            "system" : "http://cancerscreeningcds.github.io/bcsm-cds/CodeSystem/plan-definition-action-code-system",
            "code" : "specialtyreferral",
            "display" : "Refer to specialist recommendations"
          }]
        }],
        "resource" : {
          "reference" : "ServiceRequest/416"
        }
      }]
    }
  },
  {
    "fullUrl" : "http://cancerscreeningcds.github.io/bcsm-cds/ServiceRequest/416",
    "resource" : {
      "resourceType" : "ServiceRequest",
      "id" : "416",
      "text" : {
        "status" : "generated",
        "div" : "<div xmlns=\"http://www.w3.org/1999/xhtml\"><a name=\"ServiceRequest_416\"> </a><p class=\"res-header-id\"><b>Generated Narrative: ServiceRequest 416</b></p><a name=\"416\"> </a><a name=\"hc416\"> </a><a name=\"416-en-US\"> </a><p><b>basedOn</b>: <a href=\"ActivityDefinition-BreastCancerScreeningServiceRequest.html\">Breast Cancer Screening Service Request</a></p><p><b>status</b>: option</p><p><b>intent</b>: Proposal</p><p><b>code</b>: <span title=\"Codes:{http://cancerscreeningcds.github.io/bcsm-cds/CodeSystem/plan-definition-action-code-system specialtyreferral}\">Refer to specialist recommendations</span></p><p><b>subject</b>: <a href=\"Bundle-eve-Age45to54_act-acsavgrecs45_act-uspstfavgrecs.html#Patient_defaultPatient\">Jane Doe</a></p><p><b>reasonCode</b>: <span title=\"Codes:{http://cancerscreeningcds.github.io/bcsm-cds/CodeSystem/screening-observation-code-system hxbreastcawithin5y}\">Breast cancer within 5 years</span></p></div>"
      },
      "basedOn" : [{
        "reference" : "http://cancerscreeningcds.github.io/bcsm-cds/ActivityDefinition/BreastCancerScreeningServiceRequest"
      }],
      "status" : "option",
      "intent" : "proposal",
      "code" : {
        "coding" : [{
          "system" : "http://cancerscreeningcds.github.io/bcsm-cds/CodeSystem/plan-definition-action-code-system",
          "code" : "specialtyreferral",
          "display" : "Refer to specialist recommendations"
        }]
      },
      "subject" : {
        "reference" : "Patient/defaultPatient",
        "display" : "Jane Doe"
      },
      "reasonCode" : [{
        "coding" : [{
          "system" : "http://cancerscreeningcds.github.io/bcsm-cds/CodeSystem/screening-observation-code-system",
          "code" : "hxbreastcawithin5y",
          "display" : "Breast cancer within 5 years"
        }]
      }]
    }
  }]
}