<?xml version="1.0" encoding="UTF-8"?>

<Bundle xmlns="http://hl7.org/fhir">
  <id value="PrimaryScreeningDecision_act-startat25yand8yafterRT"/>
  <type value="collection"/>
  <entry>
    <fullUrl value="http://cancerscreeningcds.github.io/bcsm-cds/CarePlan/110"/>
    <resource>
      <CarePlan>
        <id value="110"/>
        <text>
          <status value="generated"/><div xmlns="http://www.w3.org/1999/xhtml"><a name="CarePlan_110"> </a><p class="res-header-id"><b>Generated Narrative: CarePlan 110</b></p><a name="110"> </a><a name="hc110"> </a><a name="110-en-US"> </a><p><b>instantiatesCanonical</b>: <a href="PlanDefinition-PrimaryScreeningDecision.html">Primary Screening Decision</a></p><p><b>status</b>: Draft</p><p><b>intent</b>: Proposal</p><p><b>subject</b>: <a href="Bundle-eve-Age45to54_act-acsavgrecs45_act-uspstfavgrecs.html#Patient_defaultPatient">Jane Doe</a></p><p><b>created</b>: 2024-12-10 00:00:00+0000</p><h3>Activities</h3><table class="grid"><tr><td style="display: none">-</td><td><b>Reference</b></td></tr><tr><td style="display: none">*</td><td><a href="Bundle-PrimaryScreeningDecision_act-startat25yand8yafterRT.html#RequestGroup_111">Bundle: type = collection</a></td></tr></table></div>
        </text>
        <instantiatesCanonical value="http://cancerscreeningcds.github.io/bcsm-cds/PlanDefinition/PrimaryScreeningDecision"/>
        <status value="draft"/>
        <intent value="proposal"/>
        <subject>
          <reference value="Patient/defaultPatient"/>
          <display value="Jane Doe"/>
        </subject>
        <created value="2024-12-10T00:00:00.0Z"/>
        <activity>
          <reference>
            <reference value="RequestGroup/111"/>
          </reference>
        </activity>
      </CarePlan>
    </resource>
  </entry>
  <entry>
    <fullUrl value="http://cancerscreeningcds.github.io/bcsm-cds/RequestGroup/111"/>
    <resource>
      <RequestGroup>
        <id value="111"/>
        <text>
          <status value="extensions"/><div xmlns="http://www.w3.org/1999/xhtml"><a name="RequestGroup_111"> </a><p class="res-header-id"><b>Generated Narrative: RequestGroup 111</b></p><a name="111"> </a><a name="hc111"> </a><a name="111-en-US"> </a><p><b>instantiatesCanonical</b>: <a href="PlanDefinition-PrimaryScreeningDecision.html">Primary Screening Decision</a></p><p><b>status</b>: Draft</p><p><b>intent</b>: Proposal</p><p><b>subject</b>: <a href="Bundle-eve-Age45to54_act-acsavgrecs45_act-uspstfavgrecs.html#Patient_defaultPatient">Jane Doe</a></p><blockquote><p><b>action</b></p><blockquote><p><b>id</b></p>ACSMammoAfterRT</blockquote><p><b>Recommendation Flag Extension</b>: <span title="Codes:{http://cancerscreeningcds.github.io/bcsm-cds/CodeSystem/recommendation-flag-code-system overdue}">Overdue</span></p><p><b>title</b>: Annual screening mammogram</p><p><b>description</b>: An annual screening mammogram starting 8 years after radiotherapy and no earlier than age 25 is recommended.

Refer to patient's Oncologic treatment team or Survivorship Care Plan for patient specific guidance.</p><p><b>code</b>: <span title="Codes:{http://loinc.org 24606-6}">MG Breast Screening</span></p><h3>Documentations</h3><table class="grid"><tr><td style="display: none">-</td><td><b>Type</b></td><td><b>Label</b></td><td><b>Display</b></td><td><b>Url</b></td></tr><tr><td style="display: none">*</td><td>Citation</td><td>ACS</td><td>American Cancer Society Recommendations for the Early Detection of Breast Cancer</td><td><a href="https://www.cancer.org/cancer/types/breast-cancer/screening-tests-and-early-detection/american-cancer-society-recommendations-for-the-early-detection-of-breast-cancer.html">https://www.cancer.org/cancer/types/breast-cancer/screening-tests-and-early-detection/american-cancer-society-recommendations-for-the-early-detection-of-breast-cancer.html</a></td></tr></table><p><b>timing</b>: Events: 2006-01-01 , Once per 1 year</p><p><b>resource</b>: <a href="Bundle-PrimaryScreeningDecision_act-startat25yand8yafterRT.html#ServiceRequest_112">Bundle: type = collection</a></p></blockquote><blockquote><p><b>action</b></p><blockquote><p><b>id</b></p>ACSMriAfterRT</blockquote><p><b>Recommendation Flag Extension</b>: <span title="Codes:{http://cancerscreeningcds.github.io/bcsm-cds/CodeSystem/recommendation-flag-code-system overdue}">Overdue</span></p><p><b>title</b>: Annual screening MRI</p><p><b>description</b>: An annual screening MRI starting 8 years after radiotherapy and no earlier than age 25 is recommended.

Refer to patient's Oncologic treatment team or Survivorship Care Plan for patient specific guidance.</p><p><b>code</b>: <span title="Codes:{http://loinc.org 30794-2}">MR Breast</span></p><h3>Documentations</h3><table class="grid"><tr><td style="display: none">-</td><td><b>Type</b></td><td><b>Label</b></td><td><b>Display</b></td><td><b>Citation</b></td><td><b>Url</b></td></tr><tr><td style="display: none">*</td><td>Citation</td><td>ACS</td><td>American Cancer Society Guidelines for Breast Screening with MRI as an Adjunct to Mammography</td><td><div><p>Oeffinger KC, Fontham ETH, Etzioni R, et al. Breast Cancer Screening for Women at Average Risk: 2015 Guideline Update From the American Cancer Society. JAMA. 2015;314(15):1599–1614.</p>
</div></td><td><a href="https://acsjournals.onlinelibrary.wiley.com/doi/full/10.3322/canjclin.57.2.75">https://acsjournals.onlinelibrary.wiley.com/doi/full/10.3322/canjclin.57.2.75</a></td></tr></table><p><b>timing</b>: Events: 2006-01-01 , Once per 1 year</p><p><b>resource</b>: <a href="Bundle-PrimaryScreeningDecision_act-startat25yand8yafterRT.html#ServiceRequest_113">Bundle: type = collection</a></p></blockquote></div>
        </text>
        <instantiatesCanonical value="http://cancerscreeningcds.github.io/bcsm-cds/PlanDefinition/PrimaryScreeningDecision"/>
        <status value="draft"/>
        <intent value="proposal"/>
        <subject>
          <reference value="Patient/defaultPatient"/>
          <display value="Jane Doe"/>
        </subject>
        <action id="ACSMammoAfterRT">
          <extension url="http://cancerscreeningcds.github.io/bcsm-cds/StructureDefinition/csm-recommendation-flag">
            <valueCodeableConcept>
              <coding>
                <system value="http://cancerscreeningcds.github.io/bcsm-cds/CodeSystem/recommendation-flag-code-system"/>
                <code value="overdue"/>
                <display value="Overdue"/>
              </coding>
            </valueCodeableConcept>
          </extension>
          <title value="Annual screening mammogram"/>
          <description value="An annual screening mammogram starting 8 years after radiotherapy and no earlier than age 25 is recommended.&#xA;&#xA;Refer to patient's Oncologic treatment team or Survivorship Care Plan for patient specific guidance."/>
          <code>
            <coding>
              <system value="http://loinc.org"/>
              <code value="24606-6"/>
              <display value="MG Breast Screening"/>
            </coding>
          </code>
          <documentation>
            <type value="citation"/>
            <label value="ACS"/>
            <display value="American Cancer Society Recommendations for the Early Detection of Breast Cancer"/>
            <url value="https://www.cancer.org/cancer/types/breast-cancer/screening-tests-and-early-detection/american-cancer-society-recommendations-for-the-early-detection-of-breast-cancer.html"/>
          </documentation>
          <timingTiming>
            <event value="2006-01-01"/>
            <repeat>
              <boundsPeriod>
                <start value="2006-01-01"/>
              </boundsPeriod>
              <frequency value="1"/>
              <period value="1"/>
              <periodUnit value="a"/>
            </repeat>
          </timingTiming>
          <resource>
            <reference value="ServiceRequest/112"/>
          </resource>
        </action>
        <action id="ACSMriAfterRT">
          <extension url="http://cancerscreeningcds.github.io/bcsm-cds/StructureDefinition/csm-recommendation-flag">
            <valueCodeableConcept>
              <coding>
                <system value="http://cancerscreeningcds.github.io/bcsm-cds/CodeSystem/recommendation-flag-code-system"/>
                <code value="overdue"/>
                <display value="Overdue"/>
              </coding>
            </valueCodeableConcept>
          </extension>
          <title value="Annual screening MRI"/>
          <description value="An annual screening MRI starting 8 years after radiotherapy and no earlier than age 25 is recommended.&#xA;&#xA;Refer to patient's Oncologic treatment team or Survivorship Care Plan for patient specific guidance."/>
          <code>
            <coding>
              <system value="http://loinc.org"/>
              <code value="30794-2"/>
              <display value="MR Breast"/>
            </coding>
          </code>
          <documentation>
            <type value="citation"/>
            <label value="ACS"/>
            <display value="American Cancer Society Guidelines for Breast Screening with MRI as an Adjunct to Mammography"/>
            <citation value="Oeffinger KC, Fontham ETH, Etzioni R, et al. Breast Cancer Screening for Women at Average Risk: 2015 Guideline Update From the American Cancer Society. JAMA. 2015;314(15):1599–1614."/>
            <url value="https://acsjournals.onlinelibrary.wiley.com/doi/full/10.3322/canjclin.57.2.75"/>
          </documentation>
          <timingTiming>
            <event value="2006-01-01"/>
            <repeat>
              <boundsPeriod>
                <start value="2006-01-01"/>
              </boundsPeriod>
              <frequency value="1"/>
              <period value="1"/>
              <periodUnit value="a"/>
            </repeat>
          </timingTiming>
          <resource>
            <reference value="ServiceRequest/113"/>
          </resource>
        </action>
      </RequestGroup>
    </resource>
  </entry>
  <entry>
    <fullUrl value="http://cancerscreeningcds.github.io/bcsm-cds/ServiceRequest/112"/>
    <resource>
      <ServiceRequest>
        <id value="112"/>
        <text>
          <status value="generated"/><div xmlns="http://www.w3.org/1999/xhtml"><a name="ServiceRequest_112"> </a><p class="res-header-id"><b>Generated Narrative: ServiceRequest 112</b></p><a name="112"> </a><a name="hc112"> </a><a name="112-en-US"> </a><p><b>basedOn</b>: <a href="ActivityDefinition-BreastCancerScreeningServiceRequest.html">Breast Cancer Screening Service Request</a></p><p><b>status</b>: option</p><p><b>intent</b>: Proposal</p><p><b>code</b>: <span title="Codes:{http://loinc.org 24606-6}">MG Breast Screening</span></p><p><b>subject</b>: <a href="Bundle-eve-Age45to54_act-acsavgrecs45_act-uspstfavgrecs.html#Patient_defaultPatient">Jane Doe</a></p><p><b>occurrence</b>: 2006-01-01</p><p><b>reasonCode</b>: <span title="Codes:{http://cancerscreeningcds.github.io/bcsm-cds/CodeSystem/screening-observation-code-system chestxrt}">History of chest radiation ages 10-30 y</span></p></div>
        </text>
        <basedOn>
          <reference value="http://cancerscreeningcds.github.io/bcsm-cds/ActivityDefinition/BreastCancerScreeningServiceRequest"/>
        </basedOn>
        <status value="option"/>
        <intent value="proposal"/>
        <code>
          <coding>
            <system value="http://loinc.org"/>
            <code value="24606-6"/>
            <display value="MG Breast Screening"/>
          </coding>
        </code>
        <subject>
          <reference value="Patient/defaultPatient"/>
          <display value="Jane Doe"/>
        </subject>
        <occurrenceDateTime value="2006-01-01"/>
        <reasonCode>
          <coding>
            <system value="http://cancerscreeningcds.github.io/bcsm-cds/CodeSystem/screening-observation-code-system"/>
            <code value="chestxrt"/>
            <display value="History of chest radiation ages 10-30 y"/>
          </coding>
        </reasonCode>
      </ServiceRequest>
    </resource>
  </entry>
  <entry>
    <fullUrl value="http://cancerscreeningcds.github.io/bcsm-cds/ServiceRequest/113"/>
    <resource>
      <ServiceRequest>
        <id value="113"/>
        <text>
          <status value="generated"/><div xmlns="http://www.w3.org/1999/xhtml"><a name="ServiceRequest_113"> </a><p class="res-header-id"><b>Generated Narrative: ServiceRequest 113</b></p><a name="113"> </a><a name="hc113"> </a><a name="113-en-US"> </a><p><b>basedOn</b>: <a href="ActivityDefinition-BreastCancerScreeningServiceRequest.html">Breast Cancer Screening Service Request</a></p><p><b>status</b>: option</p><p><b>intent</b>: Proposal</p><p><b>code</b>: <span title="Codes:{http://loinc.org 30794-2}">MR Breast</span></p><p><b>subject</b>: <a href="Bundle-eve-Age45to54_act-acsavgrecs45_act-uspstfavgrecs.html#Patient_defaultPatient">Jane Doe</a></p><p><b>occurrence</b>: 2006-01-01</p><p><b>reasonCode</b>: <span title="Codes:{http://cancerscreeningcds.github.io/bcsm-cds/CodeSystem/screening-observation-code-system chestxrt}">History of chest radiation ages 10-30 y</span></p></div>
        </text>
        <basedOn>
          <reference value="http://cancerscreeningcds.github.io/bcsm-cds/ActivityDefinition/BreastCancerScreeningServiceRequest"/>
        </basedOn>
        <status value="option"/>
        <intent value="proposal"/>
        <code>
          <coding>
            <system value="http://loinc.org"/>
            <code value="30794-2"/>
            <display value="MR Breast"/>
          </coding>
        </code>
        <subject>
          <reference value="Patient/defaultPatient"/>
          <display value="Jane Doe"/>
        </subject>
        <occurrenceDateTime value="2006-01-01"/>
        <reasonCode>
          <coding>
            <system value="http://cancerscreeningcds.github.io/bcsm-cds/CodeSystem/screening-observation-code-system"/>
            <code value="chestxrt"/>
            <display value="History of chest radiation ages 10-30 y"/>
          </coding>
        </reasonCode>
      </ServiceRequest>
    </resource>
  </entry>
</Bundle>