{
  "resourceType" : "Bundle",
  "id" : "ScreeningEligible_eve-female_yes_eve-breastca_yes_end-noteligible",
  "type" : "collection",
  "entry" : [{
    "fullUrl" : "http://cancerscreeningcds.github.io/bcsm-cds/CarePlan/504",
    "resource" : {
      "resourceType" : "CarePlan",
      "id" : "504",
      "text" : {
        "status" : "generated",
        "div" : "<div xmlns=\"http://www.w3.org/1999/xhtml\"><a name=\"CarePlan_504\"> </a><p class=\"res-header-id\"><b>Generated Narrative: CarePlan 504</b></p><a name=\"504\"> </a><a name=\"hc504\"> </a><a name=\"504-en-US\"> </a><p><b>instantiatesCanonical</b>: <a href=\"PlanDefinition-flow-ScreeningEligible.html\">Screening Eligible</a></p><p><b>status</b>: Draft</p><p><b>intent</b>: Proposal</p><p><b>subject</b>: <a href=\"Bundle-eve-female_yes_eve-breastca_yes_end-noteligible.html#Patient_f050e0b8-a61d-46c3-a93b-39f5376c53a7\">Joanne Smith</a></p><p><b>created</b>: 2024-12-10 00:00:00+0000</p><h3>Activities</h3><table class=\"grid\"><tr><td style=\"display: none\">-</td><td><b>Reference</b></td></tr><tr><td style=\"display: none\">*</td><td><a href=\"Bundle-ScreeningEligible_eve-female_yes_eve-breastca_yes_end-noteligible.html#RequestGroup_505\">Bundle: type = collection</a></td></tr></table></div>"
      },
      "instantiatesCanonical" : ["http://cancerscreeningcds.github.io/bcsm-cds/PlanDefinition/flow-ScreeningEligible"],
      "status" : "draft",
      "intent" : "proposal",
      "subject" : {
        "reference" : "Patient/f050e0b8-a61d-46c3-a93b-39f5376c53a7",
        "display" : "Joanne Smith"
      },
      "created" : "2024-12-10T00:00:00.0Z",
      "activity" : [{
        "reference" : {
          "reference" : "RequestGroup/505"
        }
      }]
    }
  },
  {
    "fullUrl" : "http://cancerscreeningcds.github.io/bcsm-cds/RequestGroup/505",
    "resource" : {
      "resourceType" : "RequestGroup",
      "id" : "505",
      "text" : {
        "status" : "generated",
        "div" : "<div xmlns=\"http://www.w3.org/1999/xhtml\"><a name=\"RequestGroup_505\"> </a><p class=\"res-header-id\"><b>Generated Narrative: RequestGroup 505</b></p><a name=\"505\"> </a><a name=\"hc505\"> </a><a name=\"505-en-US\"> </a><p><b>instantiatesCanonical</b>: <a href=\"PlanDefinition-flow-ScreeningEligible.html\">Screening Eligible</a></p><p><b>status</b>: Draft</p><p><b>intent</b>: Proposal</p><p><b>subject</b>: <a href=\"Bundle-eve-female_yes_eve-breastca_yes_end-noteligible.html#Patient_f050e0b8-a61d-46c3-a93b-39f5376c53a7\">Joanne Smith</a></p><blockquote><p><b>action</b></p><blockquote><p><b>id</b></p>NotEligibleCurrentBreastCancer</blockquote><p><b>title</b>: Refer to Oncologic care plan</p><p><b>description</b>: This patient is not eligible for routine screening and should be referred to a specialist for management.\n\nBreast cancer within 5 years may require enhanced surveillance including diagnostic mammogram. Refer to patient's Oncologic treatment team or Survivorship Care Plan for patient specific guidance.</p><p><b>code</b>: <span title=\"Codes:{http://cancerscreeningcds.github.io/bcsm-cds/CodeSystem/plan-definition-action-code-system noteligible}\">Not eligible for screening</span></p><h3>Documentations</h3><table class=\"grid\"><tr><td style=\"display: none\">-</td><td><b>Type</b></td><td><b>Label</b></td><td><b>Display</b></td><td><b>Citation</b></td><td><b>Url</b></td></tr><tr><td style=\"display: none\">*</td><td>Citation</td><td>USPSTF</td><td>Screening for Breast Cancer: US Preventive Services Task Force Recommendation Statement</td><td><div><p>US Preventive Services Task Force. Screening for Breast Cancer: US Preventive Services Task Force Recommendation Statement. JAMA. Published online April 30, 2024.</p>\n</div></td><td><a href=\"https://www.uspreventiveservicestaskforce.org/uspstf/recommendation/breast-cancer-screening\">https://www.uspreventiveservicestaskforce.org/uspstf/recommendation/breast-cancer-screening</a></td></tr><tr><td style=\"display: none\">*</td><td>Derived From</td><td>Screening Eligible</td><td>Individuals who have certain signs or symptoms concerning for breast cancer or other breast diseases are excluded from routine screening pathways and should have diagnostic testing performed.</td><td> </td><td> </td></tr></table><p><b>resource</b>: <a href=\"Bundle-ScreeningEligible_eve-female_yes_eve-breastca_yes_end-noteligible.html#CommunicationRequest_507\">Bundle: type = collection</a></p></blockquote></div>"
      },
      "instantiatesCanonical" : ["http://cancerscreeningcds.github.io/bcsm-cds/PlanDefinition/flow-ScreeningEligible"],
      "status" : "draft",
      "intent" : "proposal",
      "subject" : {
        "reference" : "Patient/f050e0b8-a61d-46c3-a93b-39f5376c53a7",
        "display" : "Joanne Smith"
      },
      "action" : [{
        "id" : "NotEligibleCurrentBreastCancer",
        "title" : "Refer to Oncologic care plan",
        "description" : "This patient is not eligible for routine screening and should be referred to a specialist for management.\n\nBreast cancer within 5 years may require enhanced surveillance including diagnostic mammogram. Refer to patient's Oncologic treatment team or Survivorship Care Plan for patient specific guidance.",
        "code" : [{
          "coding" : [{
            "system" : "http://cancerscreeningcds.github.io/bcsm-cds/CodeSystem/plan-definition-action-code-system",
            "code" : "noteligible",
            "display" : "Not eligible for screening"
          }]
        }],
        "documentation" : [{
          "type" : "citation",
          "label" : "USPSTF",
          "display" : "Screening for Breast Cancer: US Preventive Services Task Force Recommendation Statement",
          "citation" : "US Preventive Services Task Force. Screening for Breast Cancer: US Preventive Services Task Force Recommendation Statement. JAMA. Published online April 30, 2024.",
          "url" : "https://www.uspreventiveservicestaskforce.org/uspstf/recommendation/breast-cancer-screening"
        },
        {
          "type" : "derived-from",
          "label" : "Screening Eligible",
          "display" : "Individuals who have certain signs or symptoms concerning for breast cancer or other breast diseases are excluded from routine screening pathways and should have diagnostic testing performed."
        }],
        "resource" : {
          "reference" : "CommunicationRequest/507"
        }
      }]
    }
  },
  {
    "fullUrl" : "http://cancerscreeningcds.github.io/bcsm-cds/CommunicationRequest/507",
    "resource" : {
      "resourceType" : "CommunicationRequest",
      "id" : "507",
      "text" : {
        "status" : "generated",
        "div" : "<div xmlns=\"http://www.w3.org/1999/xhtml\"><a name=\"CommunicationRequest_507\"> </a><p class=\"res-header-id\"><b>Generated Narrative: CommunicationRequest 507</b></p><a name=\"507\"> </a><a name=\"hc507\"> </a><a name=\"507-en-US\"> </a><p><b>basedOn</b>: <a href=\"ActivityDefinition-CommunicateNotEligible.html\">Communicate Not Eligible</a></p><p><b>status</b>: option</p><p><b>subject</b>: <a href=\"Bundle-eve-female_yes_eve-breastca_yes_end-noteligible.html#Patient_f050e0b8-a61d-46c3-a93b-39f5376c53a7\">Joanne Smith</a></p><h3>Payloads</h3><table class=\"grid\"><tr><td style=\"display: none\">-</td><td><b>Content[x]</b></td></tr><tr><td style=\"display: none\">*</td><td>Not eligible for screening</td></tr></table><p><b>reasonCode</b>: <span title=\"Codes:{http://cancerscreeningcds.github.io/bcsm-cds/CodeSystem/screening-observation-code-system currentbreastcancer}\">Current breast cancer</span></p></div>"
      },
      "basedOn" : [{
        "reference" : "http://cancerscreeningcds.github.io/bcsm-cds/ActivityDefinition/CommunicateNotEligible"
      }],
      "status" : "option",
      "subject" : {
        "reference" : "Patient/f050e0b8-a61d-46c3-a93b-39f5376c53a7",
        "display" : "Joanne Smith"
      },
      "payload" : [{
        "contentString" : "Not eligible for screening"
      }],
      "reasonCode" : [{
        "coding" : [{
          "system" : "http://cancerscreeningcds.github.io/bcsm-cds/CodeSystem/screening-observation-code-system",
          "code" : "currentbreastcancer",
          "display" : "Current breast cancer"
        }]
      }]
    }
  }]
}