{
  "resourceType" : "Bundle",
  "id" : "FollowupScreeningResult_eve-biradsscore_mri__bi-rads_4_or_5_act-biopsy",
  "type" : "collection",
  "entry" : [{
    "fullUrl" : "http://cancerscreeningcds.github.io/bcsm-cds/CarePlan/369",
    "resource" : {
      "resourceType" : "CarePlan",
      "id" : "369",
      "text" : {
        "status" : "generated",
        "div" : "<div xmlns=\"http://www.w3.org/1999/xhtml\"><a name=\"CarePlan_369\"> </a><p class=\"res-header-id\"><b>Generated Narrative: CarePlan 369</b></p><a name=\"369\"> </a><a name=\"hc369\"> </a><a name=\"369-en-US\"> </a><p><b>instantiatesCanonical</b>: <a href=\"PlanDefinition-flow-FollowupScreeningResult.html\">Followup Screening Result</a></p><p><b>status</b>: Draft</p><p><b>intent</b>: Proposal</p><p><b>subject</b>: <a href=\"Bundle-eve-Age45to54_act-acsavgrecs45_act-uspstfavgrecs.html#Patient_defaultPatient\">Jane Doe</a></p><p><b>created</b>: 2024-12-10 00:00:00+0000</p><h3>Activities</h3><table class=\"grid\"><tr><td style=\"display: none\">-</td><td><b>Reference</b></td></tr><tr><td style=\"display: none\">*</td><td><a href=\"Bundle-FollowupScreeningResult_eve-biradsscore_mri__bi-rads_4_or_5_act-biopsy.html#RequestGroup_370\">Bundle: type = collection</a></td></tr></table></div>"
      },
      "instantiatesCanonical" : ["http://cancerscreeningcds.github.io/bcsm-cds/PlanDefinition/flow-FollowupScreeningResult"],
      "status" : "draft",
      "intent" : "proposal",
      "subject" : {
        "reference" : "Patient/defaultPatient",
        "display" : "Jane Doe"
      },
      "created" : "2024-12-10T00:00:00.0Z",
      "activity" : [{
        "reference" : {
          "reference" : "RequestGroup/370"
        }
      }]
    }
  },
  {
    "fullUrl" : "http://cancerscreeningcds.github.io/bcsm-cds/RequestGroup/370",
    "resource" : {
      "resourceType" : "RequestGroup",
      "id" : "370",
      "text" : {
        "status" : "extensions",
        "div" : "<div xmlns=\"http://www.w3.org/1999/xhtml\"><a name=\"RequestGroup_370\"> </a><p class=\"res-header-id\"><b>Generated Narrative: RequestGroup 370</b></p><a name=\"370\"> </a><a name=\"hc370\"> </a><a name=\"370-en-US\"> </a><p><b>instantiatesCanonical</b>: <a href=\"PlanDefinition-flow-FollowupScreeningResult.html\">Followup Screening Result</a></p><p><b>status</b>: Draft</p><p><b>intent</b>: Proposal</p><p><b>subject</b>: <a href=\"Bundle-eve-Age45to54_act-acsavgrecs45_act-uspstfavgrecs.html#Patient_defaultPatient\">Jane Doe</a></p><blockquote><p><b>action</b></p><blockquote><p><b>id</b></p>FollowupBirads4Or5Result</blockquote><p><b>Recommendation Flag Extension</b>: <span title=\"Codes:{http://cancerscreeningcds.github.io/bcsm-cds/CodeSystem/recommendation-flag-code-system due}\">Due</span></p><p><b>title</b>: Refer for breast biopsy</p><p><b>description</b>: Refer for breast biopsy.\n\nInitial modality will typically be image-guided core needle biopsy (guided by mammography, ultrasound, or MRI). In certain conditions, an initial excisional biopsy may be preferable. These may include lesions anatomically unsuitable for needle biopsy or patient anatomic considerations. Refer to resulting Radiologist for recommendations.\n\nIn imaging findings that have previously been biopsied and found to be benign, consider referral for excisional biopsy if there have been suspicious interval changes in the lesion.</p><p><b>code</b>: <span title=\"Codes:{http://cancerscreeningcds.github.io/bcsm-cds/CodeSystem/plan-definition-action-code-system breastbiopsy}\">Breast biopsy</span></p><h3>Documentations</h3><table class=\"grid\"><tr><td style=\"display: none\">-</td><td><b>Type</b></td><td><b>Label</b></td><td><b>Display</b></td><td><b>Citation</b></td><td><b>Url</b></td></tr><tr><td style=\"display: none\">*</td><td>Documentation</td><td>ACR</td><td>ACR BI-RADS Atlas Excerpt: Mammography Reporting System</td><td><div><p>American College of Radiology. ACR BI-RADS Atlas: Breast Imaging Reporting and Data System. 5th ed., American College of Radiology, 2013.</p>\n</div></td><td><a href=\"https://edge.sitecorecloud.io/americancoldf5f-acrorgf92a-productioncb02-3650/media/ACR/Files/RADS/BI-RADS/Mammography-Reporting.pdf\">https://edge.sitecorecloud.io/americancoldf5f-acrorgf92a-productioncb02-3650/media/ACR/Files/RADS/BI-RADS/Mammography-Reporting.pdf</a></td></tr><tr><td style=\"display: none\">*</td><td>Documentation</td><td>ACR</td><td>ACR BI-RADS Atlas Excerpt: MRI Reporting System</td><td><div><p>American College of Radiology. ACR BI-RADS Atlas: Breast Imaging Reporting and Data System. 5th ed., American College of Radiology, 2013.</p>\n</div></td><td><a href=\"https://edge.sitecorecloud.io/americancoldf5f-acrorgf92a-productioncb02-3650/media/ACR/Files/RADS/BI-RADS/Breast-MRI-Reporting.pdf\">https://edge.sitecorecloud.io/americancoldf5f-acrorgf92a-productioncb02-3650/media/ACR/Files/RADS/BI-RADS/Breast-MRI-Reporting.pdf</a></td></tr><tr><td style=\"display: none\">*</td><td>Documentation</td><td>ACR</td><td>ACR BI-RADS Atlas Excerpt: Ultrasound Reporting System</td><td><div><p>American College of Radiology. ACR BI-RADS Atlas: Breast Imaging Reporting and Data System. 5th ed., American College of Radiology, 2013.</p>\n</div></td><td><a href=\"https://edge.sitecorecloud.io/americancoldf5f-acrorgf92a-productioncb02-3650/media/ACR/Files/RADS/BI-RADS/Breast-Ultrasound-Reporting.pdf\">https://edge.sitecorecloud.io/americancoldf5f-acrorgf92a-productioncb02-3650/media/ACR/Files/RADS/BI-RADS/Breast-Ultrasound-Reporting.pdf</a></td></tr><tr><td style=\"display: none\">*</td><td>Citation</td><td>ASBrS</td><td>The American Society of Breast Surgeons Resource Guide: Excisional Breast Biopsy (Nov 2014)</td><td> </td><td><a href=\"https://www.breastsurgeons.org/docs/statements/asbrs-rg-excisional-breast-biopsy.pdf\">https://www.breastsurgeons.org/docs/statements/asbrs-rg-excisional-breast-biopsy.pdf</a></td></tr></table><p><b>timing</b>: Events: 2024-10-01 10:00:00+0000 </p><p><b>resource</b>: <a href=\"Bundle-FollowupScreeningResult_eve-biradsscore_mri__bi-rads_4_or_5_act-biopsy.html#ServiceRequest_371\">Bundle: type = collection</a></p></blockquote></div>"
      },
      "instantiatesCanonical" : ["http://cancerscreeningcds.github.io/bcsm-cds/PlanDefinition/flow-FollowupScreeningResult"],
      "status" : "draft",
      "intent" : "proposal",
      "subject" : {
        "reference" : "Patient/defaultPatient",
        "display" : "Jane Doe"
      },
      "action" : [{
        "id" : "FollowupBirads4Or5Result",
        "extension" : [{
          "url" : "http://cancerscreeningcds.github.io/bcsm-cds/StructureDefinition/csm-recommendation-flag",
          "valueCodeableConcept" : {
            "coding" : [{
              "system" : "http://cancerscreeningcds.github.io/bcsm-cds/CodeSystem/recommendation-flag-code-system",
              "code" : "due",
              "display" : "Due"
            }]
          }
        }],
        "title" : "Refer for breast biopsy",
        "description" : "Refer for breast biopsy.\n\nInitial modality will typically be image-guided core needle biopsy (guided by mammography, ultrasound, or MRI). In certain conditions, an initial excisional biopsy may be preferable. These may include lesions anatomically unsuitable for needle biopsy or patient anatomic considerations. Refer to resulting Radiologist for recommendations.\n\nIn imaging findings that have previously been biopsied and found to be benign, consider referral for excisional biopsy if there have been suspicious interval changes in the lesion.",
        "code" : [{
          "coding" : [{
            "system" : "http://cancerscreeningcds.github.io/bcsm-cds/CodeSystem/plan-definition-action-code-system",
            "code" : "breastbiopsy",
            "display" : "Breast biopsy"
          }]
        }],
        "documentation" : [{
          "type" : "documentation",
          "label" : "ACR",
          "display" : "ACR BI-RADS Atlas Excerpt: Mammography Reporting System",
          "citation" : "American College of Radiology. ACR BI-RADS Atlas: Breast Imaging Reporting and Data System. 5th ed., American College of Radiology, 2013.",
          "url" : "https://edge.sitecorecloud.io/americancoldf5f-acrorgf92a-productioncb02-3650/media/ACR/Files/RADS/BI-RADS/Mammography-Reporting.pdf"
        },
        {
          "type" : "documentation",
          "label" : "ACR",
          "display" : "ACR BI-RADS Atlas Excerpt: MRI Reporting System",
          "citation" : "American College of Radiology. ACR BI-RADS Atlas: Breast Imaging Reporting and Data System. 5th ed., American College of Radiology, 2013.",
          "url" : "https://edge.sitecorecloud.io/americancoldf5f-acrorgf92a-productioncb02-3650/media/ACR/Files/RADS/BI-RADS/Breast-MRI-Reporting.pdf"
        },
        {
          "type" : "documentation",
          "label" : "ACR",
          "display" : "ACR BI-RADS Atlas Excerpt: Ultrasound Reporting System",
          "citation" : "American College of Radiology. ACR BI-RADS Atlas: Breast Imaging Reporting and Data System. 5th ed., American College of Radiology, 2013.",
          "url" : "https://edge.sitecorecloud.io/americancoldf5f-acrorgf92a-productioncb02-3650/media/ACR/Files/RADS/BI-RADS/Breast-Ultrasound-Reporting.pdf"
        },
        {
          "type" : "citation",
          "label" : "ASBrS",
          "display" : "The American Society of Breast Surgeons Resource Guide: Excisional Breast Biopsy (Nov 2014)",
          "url" : "https://www.breastsurgeons.org/docs/statements/asbrs-rg-excisional-breast-biopsy.pdf"
        }],
        "timingTiming" : {
          "event" : ["2024-10-01T10:00:00.000+00:00"]
        },
        "resource" : {
          "reference" : "ServiceRequest/371"
        }
      }]
    }
  },
  {
    "fullUrl" : "http://cancerscreeningcds.github.io/bcsm-cds/ServiceRequest/371",
    "resource" : {
      "resourceType" : "ServiceRequest",
      "id" : "371",
      "text" : {
        "status" : "generated",
        "div" : "<div xmlns=\"http://www.w3.org/1999/xhtml\"><a name=\"ServiceRequest_371\"> </a><p class=\"res-header-id\"><b>Generated Narrative: ServiceRequest 371</b></p><a name=\"371\"> </a><a name=\"hc371\"> </a><a name=\"371-en-US\"> </a><p><b>basedOn</b>: <a href=\"ActivityDefinition-BreastCancerScreeningServiceRequest.html\">Breast Cancer Screening Service Request</a></p><p><b>status</b>: option</p><p><b>intent</b>: Proposal</p><p><b>code</b>: <span title=\"Codes:{http://cancerscreeningcds.github.io/bcsm-cds/CodeSystem/plan-definition-action-code-system breastbiopsy}\">Breast biopsy</span></p><p><b>subject</b>: <a href=\"Bundle-eve-Age45to54_act-acsavgrecs45_act-uspstfavgrecs.html#Patient_defaultPatient\">Jane Doe</a></p><p><b>occurrence</b>: 2024-10-01 10:00:00+0000</p><p><b>reasonCode</b>: <span title=\"Codes:{http://snomed.info/sct 397145000}\">Mammography assessment (Category 5) - Highly suggestive of malignancy (finding)</span></p></div>"
      },
      "basedOn" : [{
        "reference" : "http://cancerscreeningcds.github.io/bcsm-cds/ActivityDefinition/BreastCancerScreeningServiceRequest"
      }],
      "status" : "option",
      "intent" : "proposal",
      "code" : {
        "coding" : [{
          "system" : "http://cancerscreeningcds.github.io/bcsm-cds/CodeSystem/plan-definition-action-code-system",
          "code" : "breastbiopsy",
          "display" : "Breast biopsy"
        }]
      },
      "subject" : {
        "reference" : "Patient/defaultPatient",
        "display" : "Jane Doe"
      },
      "occurrenceDateTime" : "2024-10-01T10:00:00.000+00:00",
      "reasonCode" : [{
        "coding" : [{
          "system" : "http://snomed.info/sct",
          "code" : "397145000",
          "display" : "Mammography assessment (Category 5) - Highly suggestive of malignancy (finding)"
        }]
      }]
    }
  }]
}