{
  "resourceType": "Bundle",
  "id": "eve-fiveyrriskpop_eve-ageAtLeast35_act-HighRiskReferral",
  "type": "collection",
  "entry": [
    {
      "resource": {
        "resourceType": "Patient",
<<<<<<< HEAD
        "id": "7eef770e-ebab-4f95-8949-13672cfbddab",
=======
        "id": "5aee8c29-f7e1-4e14-a683-de5047937b36",
>>>>>>> main
        "name": [
          {
            "given": [
              "Jane"
            ],
            "family": "Doe"
          }
        ],
        "gender": "female",
        "birthDate": "1980-01-01"
      }
    },
    {
      "resource": {
        "resourceType": "Observation",
<<<<<<< HEAD
        "id": "a403339a-ddff-42e2-a307-8c1b7fbf7ef0",
        "subject": {
          "reference": "Patient/7eef770e-ebab-4f95-8949-13672cfbddab"
=======
        "id": "83086aff-6c38-4afd-90c1-6a84d88cffa0",
        "subject": {
          "reference": "Patient/5aee8c29-f7e1-4e14-a683-de5047937b36"
>>>>>>> main
        },
        "status": "final",
        "code": {
          "coding": [
            {
              "system": "http://cancerscreeningcds.github.io/bcsm-cds/CodeSystem/plan-definition-action-code-system",
              "code": "5yriskassessment",
              "display": "5 year risk assessment"
            }
          ]
        },
        "valueQuantity": {
          "value": 3,
          "code": "%"
        },
        "effectiveDateTime": "2024-11-10T00:00:00.0Z"
      }
    }
  ]
}