{
  "resourceType": "Bundle",
  "id": "eve-fhxbrca_eve-ageAtLeast35_act-HighRiskAssessment",
  "type": "collection",
  "entry": [
    {
      "resource": {
        "resourceType": "Patient",
<<<<<<< HEAD
        "id": "bf0653d6-b720-4a3c-904e-f5d4dd153f27",
=======
        "id": "b9874541-5bc0-4603-a1cf-f131c039e081",
>>>>>>> main
        "name": [
          {
            "given": [
              "Jane"
            ],
            "family": "Doe"
          }
        ],
        "gender": "female",
        "birthDate": "1980-01-01"
      }
    },
    {
      "resource": {
        "resourceType": "Observation",
<<<<<<< HEAD
        "id": "2793acd4-1c16-4e53-909d-17a35e59f868",
        "subject": {
          "reference": "Patient/bf0653d6-b720-4a3c-904e-f5d4dd153f27"
=======
        "id": "6fdc56cb-5f94-4206-a268-4e05ac664a36",
        "subject": {
          "reference": "Patient/b9874541-5bc0-4603-a1cf-f131c039e081"
>>>>>>> main
        },
        "status": "final",
        "code": {
          "coding": [
            {
              "system": "http://cancerscreeningcds.github.io/bcsm-cds/CodeSystem/plan-definition-action-code-system",
              "code": "fhxrisktool",
              "display": "Brief familial risk assessment tool"
            }
          ]
        },
        "valueCodeableConcept": {
          "coding": [
            {
              "system": "http://cancerscreeningcds.github.io/bcsm-cds/CodeSystem/screening-observation-code-system",
              "code": "highfamilialrisk",
              "display": "High familial risk"
            }
          ]
        },
        "effectiveDateTime": "2024-11-10T00:00:00.0Z"
      }
    }
  ]
}