{
  "resourceType": "Bundle",
  "id": "eve-fiveyrrisklowpop_eve-ageAtLeast35_act-ConsiderHighRiskReferral",
  "type": "collection",
  "entry": [
    {
      "resource": {
        "resourceType": "Patient",
<<<<<<< HEAD
        "id": "c94ef802-74a5-432c-a256-df6bc65a28a9",
=======
        "id": "de8cc91c-2e72-4ee9-a19b-19b7108961b3",
>>>>>>> main
        "name": [
          {
            "given": [
              "Jane"
            ],
            "family": "Doe"
          }
        ],
        "gender": "female",
        "birthDate": "1980-01-01"
      }
    },
    {
      "resource": {
        "resourceType": "Observation",
<<<<<<< HEAD
        "id": "6fb6fb6c-aaa4-432d-a47e-5cfe67ebd219",
        "subject": {
          "reference": "Patient/c94ef802-74a5-432c-a256-df6bc65a28a9"
=======
        "id": "bbf2584e-1094-446b-8c44-adc3d15b8438",
        "subject": {
          "reference": "Patient/de8cc91c-2e72-4ee9-a19b-19b7108961b3"
>>>>>>> main
        },
        "status": "final",
        "code": {
          "coding": [
            {
              "system": "http://cancerscreeningcds.github.io/bcsm-cds/CodeSystem/plan-definition-action-code-system",
              "code": "5yriskassessment",
              "display": "5 year risk assessment"
            }
          ]
        },
        "valueQuantity": {
          "value": 1.67,
          "code": "%"
        },
        "effectiveDateTime": "2024-11-10T00:00:00.0Z"
      }
    }
  ]
}