{
  "resourceType": "Bundle",
  "id": "eve-personalriskfactors__act-HighRiskAssessment",
  "type": "collection",
  "entry": [
    {
      "resource": {
        "resourceType": "Patient",
<<<<<<< HEAD
        "id": "9b45e871-377f-4083-bf3a-09baf4d4c52a",
=======
        "id": "f2fd6aa2-c1df-48f8-a60a-d6a80e1a6211",
>>>>>>> main
        "name": [
          {
            "given": [
              "Jane"
            ],
            "family": "Doe"
          }
        ],
        "gender": "female",
        "birthDate": "1980-01-01"
      }
    },
    {
      "resource": {
        "resourceType": "Observation",
<<<<<<< HEAD
        "id": "3381da2d-05b2-46d4-9db5-2742973a78cf",
        "subject": {
          "reference": "Patient/9b45e871-377f-4083-bf3a-09baf4d4c52a"
=======
        "id": "e3e404f1-adb7-45b4-b7e6-d1a91a24cd7d",
        "subject": {
          "reference": "Patient/f2fd6aa2-c1df-48f8-a60a-d6a80e1a6211"
>>>>>>> main
        },
        "status": "final",
        "code": {
          "coding": [
            {
              "system": "http://cancerscreeningcds.github.io/bcsm-cds/CodeSystem/screening-observation-code-system",
              "code": "PersonalRiskFactors",
              "display": "Personal risk factors conferring increased risk of breast cancer"
            }
          ]
        },
        "valueBoolean": true,
        "effectiveDateTime": "2024-11-10T00:00:00.0Z"
      }
    }
  ]
}