{
  "resourceType": "Bundle",
  "id": "exc-hxbrca",
  "type": "collection",
  "entry": [
    {
      "resource": {
        "resourceType": "Patient",
<<<<<<< HEAD
        "id": "284d4f46-70b4-4235-b6da-6bc273dab45e",
=======
        "id": "a7855f52-62b9-4e4c-8866-aa1ad1fd6841",
>>>>>>> main
        "name": [
          {
            "given": [
              "Jane"
            ],
            "family": "Doe"
          }
        ],
        "gender": "female",
        "birthDate": "1980-01-01"
      }
    },
    {
      "resource": {
        "resourceType": "Condition",
        "id": "invasive-breast-cancer",
        "subject": {
<<<<<<< HEAD
          "reference": "Patient/284d4f46-70b4-4235-b6da-6bc273dab45e"
=======
          "reference": "Patient/a7855f52-62b9-4e4c-8866-aa1ad1fd6841"
>>>>>>> main
        },
        "clinicalStatus": {
          "coding": [
            {
              "system": "http://terminology.hl7.org/CodeSystem/condition-clinical",
              "code": "inactive",
              "display": "Inactive"
            }
          ]
        },
        "verificationStatus": {
          "coding": [
            {
              "system": "http://terminology.hl7.org/CodeSystem/condition-ver-status",
              "code": "confirmed",
              "display": "Confirmed"
            }
          ]
        },
        "category": [
          {
            "coding": [
              {
                "system": "http://terminology.hl7.org/CodeSystem/condition-category",
                "code": "problem-list-item",
                "display": "Problem List Item"
              }
            ]
          }
        ],
        "code": {
          "coding": [
            {
              "system": "http://snomed.info/sct",
              "code": "254837009",
              "display": "Malignant neoplasm of breast (disorder)"
            }
          ],
          "text": "Malignant neoplasm of breast (disorder)"
        },
        "onsetDateTime": "2019-05-16"
      }
    }
  ]
}