{
  "resourceType": "Bundle",
  "id": "eve-female_yes_eve-breastca_yes_end-noteligible",
  "type": "collection",
  "entry": [
    {
      "resource": {
        "resourceType": "Patient",
<<<<<<< HEAD
        "id": "71836fcc-c769-4626-bcb7-6943f315c554",
=======
        "id": "6ea4ea20-1d76-4e10-aab0-7a92369eb943",
>>>>>>> main
        "name": [
          {
            "given": [
              "Joanne"
            ],
            "family": "Smith"
          }
        ],
        "gender": "other",
        "birthDate": "1980-01-01",
        "extension": [
          {
            "url": "http://hl7.org/fhir/us/core/StructureDefinition/us-core-birthsex",
            "valueCode": "F"
          }
        ]
      }
    },
    {
      "resource": {
        "resourceType": "Condition",
        "id": "invasive-breast-cancer",
        "subject": {
<<<<<<< HEAD
          "reference": "Patient/71836fcc-c769-4626-bcb7-6943f315c554"
=======
          "reference": "Patient/6ea4ea20-1d76-4e10-aab0-7a92369eb943"
>>>>>>> main
        },
        "clinicalStatus": {
          "coding": [
            {
              "system": "http://terminology.hl7.org/CodeSystem/condition-clinical",
              "code": "active",
              "display": "Active"
            }
          ]
        },
        "verificationStatus": {
          "coding": [
            {
              "system": "http://terminology.hl7.org/CodeSystem/condition-ver-status",
              "code": "confirmed",
              "display": "Confirmed"
            }
          ]
        },
        "category": [
          {
            "coding": [
              {
                "system": "http://terminology.hl7.org/CodeSystem/condition-category",
                "code": "problem-list-item",
                "display": "Problem List Item"
              }
            ]
          }
        ],
        "code": {
          "coding": [
            {
              "system": "http://snomed.info/sct",
              "code": "254837009",
              "display": "Malignant neoplasm of breast (disorder)"
            }
          ],
          "text": "Invasive Breast Cancer"
        },
        "onsetDateTime": "2024-10-01"
      }
    }
  ]
}