{
  "resourceType": "Bundle",
  "id": "eve-mastectomy_yes_end-noteligible",
  "type": "collection",
  "entry": [
    {
      "resource": {
        "resourceType": "Patient",
<<<<<<< HEAD
        "id": "b0a1fe60-7c44-4c20-a061-0f294c9f7ef5",
=======
        "id": "ad0c811a-b58d-4540-b71a-f25f14565464",
>>>>>>> main
        "name": [
          {
            "given": [
              "Joanne"
            ],
            "family": "Smith"
          }
        ],
        "gender": "other",
        "birthDate": "1980-01-01",
        "extension": [
          {
            "url": "http://hl7.org/fhir/us/core/StructureDefinition/us-core-birthsex",
            "valueCode": "F"
          }
        ]
      }
    },
    {
      "resource": {
        "resourceType": "Condition",
        "id": "bilateral-mastectomy-condition",
        "subject": {
<<<<<<< HEAD
          "reference": "Patient/b0a1fe60-7c44-4c20-a061-0f294c9f7ef5"
=======
          "reference": "Patient/ad0c811a-b58d-4540-b71a-f25f14565464"
>>>>>>> main
        },
        "clinicalStatus": {
          "coding": [
            {
              "system": "http://terminology.hl7.org/CodeSystem/condition-clinical",
              "code": "active"
            }
          ]
        },
        "verificationStatus": {
          "coding": [
            {
              "system": "http://terminology.hl7.org/CodeSystem/condition-ver-status",
              "code": "confirmed",
              "display": "Confirmed"
            }
          ],
          "text": "Confirmed"
        },
        "code": {
          "coding": [
            {
              "system": "http://snomed.info/sct",
              "code": "428529004"
            }
          ]
        }
      }
    }
  ]
}