{
  "resourceType": "Bundle",
  "id": "eve-breastfindings_yes_act-dxtesting",
  "type": "collection",
  "entry": [
    {
      "resource": {
        "resourceType": "Patient",
<<<<<<< HEAD
        "id": "3f9301dc-0932-4246-a5ee-b304bc384136",
=======
        "id": "e4ac8067-8f15-4d28-b499-5cf8e33ccb2e",
>>>>>>> main
        "name": [
          {
            "given": [
              "Joanne"
            ],
            "family": "Smith"
          }
        ],
        "gender": "other",
        "birthDate": "1980-01-01",
        "extension": [
          {
            "url": "http://hl7.org/fhir/us/core/StructureDefinition/us-core-birthsex",
            "valueCode": "F"
          }
        ]
      }
    },
    {
      "resource": {
        "resourceType": "Observation",
<<<<<<< HEAD
        "id": "8ee11d97-f0ca-400e-9fac-6e58361d468b",
        "subject": {
          "reference": "Patient/3f9301dc-0932-4246-a5ee-b304bc384136"
=======
        "id": "498a9085-8820-42e5-9e92-dd402d3d6125",
        "subject": {
          "reference": "Patient/e4ac8067-8f15-4d28-b499-5cf8e33ccb2e"
>>>>>>> main
        },
        "status": "final",
        "code": {
          "coding": [
            {
              "system": "http://cancerscreeningcds.github.io/bcsm-cds/CodeSystem/screening-observation-code-system",
              "code": "BreastFindings",
              "display": "New or worsening breast findings"
            }
          ]
        },
        "valueBoolean": true,
        "effectiveDateTime": "2024-12-10T00:00:00.0Z"
      }
    }
  ]
}