{
  "resourceType": "Bundle",
  "id": "eve-breastsymptoms_yes_act-dxtesting",
  "type": "collection",
  "entry": [
    {
      "resource": {
        "resourceType": "Patient",
<<<<<<< HEAD
        "id": "cf420a71-20d2-463c-b6b6-be9766efc911",
=======
        "id": "2a9e2062-0410-4ea7-959f-aefc328b3f54",
>>>>>>> main
        "name": [
          {
            "given": [
              "Joanne"
            ],
            "family": "Smith"
          }
        ],
        "gender": "other",
        "birthDate": "1980-01-01",
        "extension": [
          {
            "url": "http://hl7.org/fhir/us/core/StructureDefinition/us-core-birthsex",
            "valueCode": "F"
          }
        ]
      }
    },
    {
      "resource": {
        "resourceType": "Observation",
<<<<<<< HEAD
        "id": "4887690a-dee3-4581-a0ee-4639d3ce2b20",
        "subject": {
          "reference": "Patient/cf420a71-20d2-463c-b6b6-be9766efc911"
=======
        "id": "d0b94acc-eb66-4c53-ab13-c312c5ac4e5d",
        "subject": {
          "reference": "Patient/2a9e2062-0410-4ea7-959f-aefc328b3f54"
>>>>>>> main
        },
        "status": "final",
        "code": {
          "coding": [
            {
              "system": "http://cancerscreeningcds.github.io/bcsm-cds/CodeSystem/screening-observation-code-system",
              "code": "BreastSymptoms",
              "display": "New or worsening breast symptoms"
            }
          ]
        },
        "valueBoolean": true,
        "effectiveDateTime": "2024-12-10T00:00:00.0Z"
      }
    }
  ]
}