{
  "resourceType": "Bundle",
  "id": "inc-AgeAtLeast18_MostRecentAgeValue_yes",
  "type": "collection",
  "entry": [
    {
      "resource": {
        "resourceType": "Patient",
<<<<<<< HEAD
        "id": "4c36c1f4-f754-46b3-baff-66437d531cb4",
=======
        "id": "106a44ad-ef27-429d-b59f-b7f78f09c16f",
>>>>>>> main
        "name": [
          {
            "given": [
              "Joanne"
            ],
            "family": "Smith"
          }
        ],
        "gender": "female"
      }
    },
    {
      "resource": {
        "resourceType": "Observation",
<<<<<<< HEAD
        "id": "d6d0e416-6790-4eb5-9d93-25d897d7b664",
        "subject": {
          "reference": "Patient/4c36c1f4-f754-46b3-baff-66437d531cb4"
=======
        "id": "1833fd42-488c-4db5-b461-3021ffb364b8",
        "subject": {
          "reference": "Patient/106a44ad-ef27-429d-b59f-b7f78f09c16f"
>>>>>>> main
        },
        "status": "final",
        "code": {
          "coding": [
            {
              "system": "http://loinc.org",
              "code": "30525-0",
              "display": "Age"
            }
          ]
        },
        "valueQuantity": {
          "value": 18,
          "unit": "years"
        },
        "effectiveDateTime": "2024-12-10T00:00:00.0Z"
      }
    }
  ]
}