{
  "resourceType": "Bundle",
  "id": "eve-nextdueexists_yes_eve-screeninginterval_annual_eve-dueannual_not_due_end-notdue2",
  "type": "collection",
  "entry": [
    {
      "resource": {
        "resourceType": "Patient",
        "id": "defaultPatient",
        "name": [
          {
            "given": [
              "Jane"
            ],
            "family": "Doe"
          }
        ],
        "gender": "female",
        "birthDate": "1981-01-01"
      }
    },
    {
      "resource": {
        "resourceType": "CarePlan",
<<<<<<< HEAD
        "id": "6061aeb7-26cf-43df-9584-4cad8e0268ff",
=======
        "id": "cda6293b-914a-4d3b-abd3-86ae7f1dfe09",
>>>>>>> main
        "subject": {
          "reference": "Patient/defaultPatient"
        },
        "status": "active",
        "created": "2024-06-01",
        "category": [
          {
            "coding": [
              {
                "system": "http://snomed.info/sct",
                "code": "268547008",
                "display": "Breast cancer screening"
              }
            ]
          }
        ],
        "activity": [
          {
            "reference": {
              "reference": "RequestGroup/RequestGroup-1"
            }
          }
        ]
      }
    },
    {
      "resource": {
        "resourceType": "RequestGroup",
        "id": "RequestGroup-1",
        "subject": {
          "reference": "Patient/defaultPatient"
        },
        "status": "active",
        "intent": "order",
        "action": [
          {
            "code": [
              {
                "coding": [
                  {
                    "system": "http://loinc.org",
                    "code": "24606-6",
                    "display": "MG Breast Screening"
                  }
                ]
              }
            ],
            "timingTiming": {
              "event": [
                "2026-12-01"
              ],
              "repeat": {
                "frequency": 1,
                "period": 1,
                "periodUnit": "a"
              }
            }
          }
        ]
      }
    }
  ]
}