{
  "resourceType": "Bundle",
  "id": "eve-nextdueexists_yes_eve-screeninginterval_unknown_eve-due_due",
  "type": "collection",
  "entry": [
    {
      "resource": {
        "resourceType": "Patient",
        "id": "defaultPatient",
        "name": [
          {
            "given": [
              "Jane"
            ],
            "family": "Doe"
          }
        ],
        "gender": "female",
        "birthDate": "1981-01-01"
      }
    },
    {
      "resource": {
        "resourceType": "CarePlan",
        "id": "f53a825b-9987-4269-9a2b-764dd08c12a5",
        "subject": {
          "reference": "Patient/defaultPatient"
        },
        "status": "active",
        "created": "2024-06-01",
        "category": [
          {
            "coding": [
              {
                "system": "http://snomed.info/sct",
                "code": "268547008",
                "display": "Breast cancer screening"
              }
            ]
          }
        ],
        "activity": [
          {
            "reference": {
              "reference": "RequestGroup/RequestGroup-1"
            }
          }
        ]
      }
    },
    {
      "resource": {
        "resourceType": "RequestGroup",
        "id": "RequestGroup-1",
        "subject": {
          "reference": "Patient/defaultPatient"
        },
        "status": "active",
        "intent": "order",
        "action": [
          {
            "code": [
              {
                "coding": [
                  {
                    "system": "http://loinc.org",
                    "code": "24606-6",
                    "display": "MG Breast Screening"
                  }
                ]
              }
            ],
            "timingTiming": {
              "event": [
                "2025-01-01"
              ]
            }
          }
        ]
      }
    }
  ]
}